;Title, http://www.gcdataconcepts.com, HAM-IMU, MPU-9250
;Version, 1191, Build date, Nov 15 2016,  SN:CCDC30163044EA8
;Start_time, 2007-01-05, 22:50:26.589
;Temperature, -999.00, deg C,  Vbat, 4082, mv
;MPU SR, 200,Hz,  Accel sens, 2048,counts/g, Gyro sens, 16,counts/dps,  Mag SR, 10,Hz,  Mag sens, 1666,counts/mT
;Deadband, 0, counts
;DeadbandTimeout, 5,sec
;Time, Ax, Ay, Az, Gx, Gy, Gz, Qw, Qx, Qy, Qz, Mx, My, Mz, T
0.003814,-319,1992,381,-13,-12,-66,-9456.176,-1493.217,13193.394,1649.493
0.013549,-312,2013,383,-15,-14,-46,-9457.335,-1495.503,13191.827,1653.305,175,-73,3
0.033538,-332,2002,387,1,-9,-29,-9460.599,-1496.345,13189.298,1654.048
0.053558,-338,2024,379,13,0,-10,-9464.365,-1496.241,13186.847,1652.137
0.073547,-340,2025,379,12,8,0,-9467.255,-1497.127,13185.004,1649.482
0.093567,-325,2000,351,4,15,-8,-9469.233,-1499.731,13183.739,1645.875
0.113556,-318,2010,369,3,27,-11,-9472.223,-1503.276,13181.836,1640.663
0.133606,-324,2019,364,17,34,-8,-9477.778,-1507.293,13178.147,1634.522,175,-73,-9,36566
0.153564,-314,2031,348,35,37,-9,-9485.189,-1512.915,13172.937,1628.323
0.173553,-346,2034,372,49,42,-21,-9493.777,-1520.233,13166.714,1621.777
0.193573,-318,2036,379,55,48,-26,-9502.358,-1528.630,13160.430,1614.618
0.213562,-331,2043,352,56,55,-24,-9510.311,-1536.166,13154.910,1605.596
0.233551,-332,2053,346,47,62,-9,-9516.484,-1543.267,13150.862,1595.342,173,-70,-14
0.253570,-338,2064,364,33,66,-8,-9520.553,-1549.267,13148.533,1584.406
0.273559,-298,2044,371,16,67,0,-9522.460,-1553.966,13147.941,1573.219
0.293548,-294,2019,363,0,64,11,-9521.788,-1556.199,13149.474,1562.227
0.313568,-276,2051,346,-21,52,17,-9519.929,-1555.642,13152.023,1552.631
0.333557,-265,2045,360,-28,36,27,-9517.696,-1551.292,13155.162,1544.055,175,-83,-11
0.353576,-258,2038,381,-34,19,42,-9515.293,-1543.597,13158.709,1536.328
0.373565,-292,2019,392,-38,6,51,-9512.599,-1534.161,13162.481,1530.137
0.393554,-266,2006,373,-40,-6,48,-9509.656,-1525.941,13165.954,1526.775
0.413665,-274,2003,343,-43,-11,30,-9506.504,-1519.720,13169.077,1525.674
0.433563,-264,2018,388,-41,-14,13,-9503.381,-1515.535,13171.749,1526.230,170,-61,-4
0.453552,-290,2014,400,-40,-15,2,-9500.776,-1513.267,13173.706,1527.797
0.473571,-318,2030,379,-34,-14,-10,-9498.411,-1512.987,13175.197,1529.927
0.493560,-299,2047,388,-29,-8,-23,-9495.434,-1514.599,13176.976,1531.484
0.513580,-320,2021,403,-35,4,-25,-9490.747,-1516.996,13180.133,1531.003
0.533569,-299,1992,422,-49,17,-19,-9484.149,-1519.756,13184.845,1528.582,168,-59,0
0.553558,-304,2015,404,-57,30,-19,-9477.252,-1523.774,13189.855,1524.131
0.573578,-293,2043,390,-54,44,-18,-9471.017,-1529.902,13194.281,1518.432
0.593567,-279,2012,396,-46,54,-24,-9465.297,-1536.657,13198.348,1511.917
0.613586,-294,2003,430,-45,56,-20,-9460.489,-1543.042,13201.833,1505.062
0.633575,-281,1987,384,-33,54,-20,-9457.662,-1549.190,13203.891,1498.436,179,-59,-4,36556
0.653564,-245,1991,399,-18,48,-16,-9458.000,-1554.120,13203.785,1492.125
0.673584,-291,1990,371,3,40,-9,-9461.320,-1556.747,13201.845,1485.489
0.693573,-282,1988,402,23,31,1,-9468.416,-1557.881,13197.396,1478.605
0.713562,-252,1997,393,48,26,11,-9479.330,-1557.969,13190.413,1470.871
0.733581,-265,1990,397,75,22,17,-9493.545,-1557.320,13181.110,1463.258,169,-55,11
0.753570,-263,2019,368,95,17,16,-9509.485,-1557.428,13170.245,1457.463
0.773590,-283,2029,343,102,11,2,-9525.571,-1559.294,13158.830,1453.518
0.793579,-254,2045,349,101,7,-11,-9541.189,-1561.923,13147.531,1450.511
0.813568,-264,2059,338,97,4,-14,-9555.550,-1564.016,13137.045,1448.728
0.833587,-267,2048,350,85,-1,-15,-9568.279,-1565.299,13127.622,1448.743,179,-61,5
0.853576,-264,2046,353,70,-11,-17,-9579.285,-1565.632,13119.323,1450.823
0.873596,-252,2067,346,58,-23,-23,-9588.718,-1565.359,13112.025,1454.778
0.893585,-266,2043,380,47,-33,-27,-9595.600,-1565.483,13106.174,1461.977
0.913574,-260,2021,363,25,-46,-44,-9599.091,-1566.716,13102.152,1473.732
0.933593,-257,1998,394,4,-59,-65,-9601.264,-1567.309,13098.699,1489.561,178,-65,-3
0.953582,-266,2011,354,-1,-83,-72,-9603.729,-1564.602,13095.098,1508.061
0.973571,-298,2018,390,0,-107,-57,-9607.149,-1556.539,13091.181,1528.488
0.993591,-319,1996,378,-1,-139,-41,-9609.364,-1544.548,13088.217,1551.931
1.013580,-298,1992,342,-17,-161,-36,-9610.539,-1529.910,13085.930,1578.221
1.033569,-310,2007,350,-24,-177,-30,-9612.487,-1511.916,13083.497,1603.660,179,-57,-9
1.053588,-346,2011,371,-18,-181,-6,-9615.754,-1491.139,13080.607,1626.937
1.073578,-346,2037,370,-12,-178,12,-9619.068,-1470.832,13077.991,1646.742
1.093597,-367,2032,353,-11,-153,19,-9621.797,-1453.285,13075.986,1662.232
1.113586,-345,2007,373,-12,-122,18,-9624.466,-1438.592,13074.191,1673.640
1.133606,-341,2013,340,-5,-97,22,-9627.680,-1425.846,13072.140,1682.054,172,-61,-13,36560
1.153595,-324,2028,372,2,-79,19,-9631.688,-1414.997,13069.639,1687.704
1.173584,-312,2040,345,5,-60,22,-9635.577,-1405.694,13067.243,1691.825
1.193603,-316,2058,335,6,-51,18,-9639.081,-1397.826,13065.054,1695.286
1.213592,-294,2023,373,3,-44,9,-9642.616,-1391.622,13062.572,1699.411
1.233581,-290,2002,339,6,-44,-2,-9646.854,-1386.155,13059.467,1703.678,183,-58,-14
1.253570,-275,2052,353,14,-41,0,-9651.774,-1380.198,13055.956,1707.560
1.273590,-268,2059,364,15,-42,8,-9655.712,-1371.152,13053.703,1709.805
1.293609,-297,2043,364,-1,-48,30,-9657.854,-1359.355,13053.150,1711.346
1.313598,-285,2019,344,-16,-52,38,-9657.969,-1346.957,13054.034,1713.759
1.333587,-275,2014,368,-25,-55,36,-9658.163,-1334.686,13054.708,1717.129,182,-61,-6
1.353668,-278,2014,343,-21,-60,28,-9659.826,-1322.991,13054.194,1720.732
1.373596,-272,2013,377,-8,-60,29,-9662.372,-1311.043,13053.085,1723.993
1.393615,-263,2039,343,-5,-58,34,-9665.110,-1298.812,13052.006,1726.064
1.413665,-273,2043,350,-5,-51,39,-9667.476,-1286.321,13051.377,1726.930
1.433593,-275,2051,335,-8,-47,44,-9669.438,-1273.836,13051.175,1726.724,190,-58,-12
1.453582,-257,2030,355,-12,-41,46,-9670.938,-1262.199,13051.165,1726.943
1.473602,-233,2021,368,-14,-45,38,-9672.041,-1251.159,13051.154,1728.884
1.493591,-244,2016,342,-14,-53,25,-9673.502,-1240.943,13050.458,1733.323
1.513610,-259,2029,312,-10,-62,14,-9675.920,-1231.361,13048.613,1740.531
1.533599,-261,2031,333,-1,-72,2,-9679.228,-1222.580,13045.627,1750.679,179,-61,-4
1.553588,-274,2071,340,3,-81,-12,-9681.730,-1215.181,13042.732,1763.527
1.573608,-275,2071,344,-7,-91,-27,-9681.117,-1209.105,13041.631,1779.140
1.593597,-259,2085,311,-35,-96,-44,-9675.722,-1201.901,13043.918,1796.514
1.613617,-259,2087,349,-73,-103,-39,-9664.064,-1191.504,13050.961,1814.949
1.633606,-245,2180,340,-131,-115,-29,-9642.759,-1176.493,13065.233,1835.259,188,-58,-10,36572
1.653595,-229,2135,364,-204,-135,-19,-9610.995,-1154.458,13087.308,1858.439
1.673584,-234,2056,339,-290,-171,6,-9570.035,-1121.722,13116.461,1884.162
1.693603,-238,2042,325,-351,-209,50,-9524.836,-1079.286,13148.902,1911.661
1.713623,-272,2061,368,-374,-239,83,-9478.714,-1031.163,13182.119,1938.519
1.733612,-284,2090,430,-385,-250,108,-9429.414,-980.209,13217.628,1963.436,190,-62,-14
1.753631,-288,2055,469,-417,-239,125,-9372.681,-927.569,13258.597,1984.315
1.773590,-274,2026,474,-477,-212,146,-9306.761,-873.300,13306.588,1997.922
1.793609,-273,2026,517,-541,-176,172,-9232.395,-818.448,13360.732,2004.815
1.813598,-257,2018,519,-591,-140,192,-9151.515,-764.023,13419.153,2006.942
1.833618,-238,1987,593,-630,-115,196,-9066.085,-711.768,13480.004,2006.092,190,-62,2
1.853607,-257,1959,631,-652,-92,185,-8976.232,-663.624,13542.572,2005.251
1.873626,-245,1927,688,-672,-82,161,-8882.675,-620.666,13605.978,2006.402
1.893615,-251,1924,669,-689,-76,124,-8785.745,-582.582,13669.898,2010.123
1.913604,-294,1882,680,-697,-72,92,-8689.043,-550.209,13731.965,2016.524
1.933624,-275,1866,694,-675,-67,53,-8596.219,-525.717,13789.906,2025.480,197,-58,13
1.953613,-293,1902,809,-631,-56,11,-8508.909,-507.816,13843.345,2034.167
1.973632,-238,1888,808,-590,-35,-4,-8425.737,-492.186,13894.216,2037.381
1.993621,-220,1874,800,-566,-4,14,-8346.882,-475.091,13942.957,2033.037
2.013610,-193,1781,832,-532,23,49,-8273.424,-455.187,13988.804,2022.884
2.033599,-170,1810,828,-498,34,79,-8207.056,-434.783,14030.063,2011.950,203,-61,51
2.053619,-175,1722,843,-438,23,77,-8150.535,-417.415,14064.560,2004.525
2.073639,-148,1684,825,-369,5,45,-8103.755,-404.743,14092.183,2002.788
2.093628,-178,1635,804,-297,-14,17,-8067.786,-394.902,14112.772,2004.991
2.113617,-202,1602,772,-218,-29,5,-8044.738,-387.355,14125.492,2009.492
2.133606,-210,1445,729,-130,-39,-6,-8034.805,-384.488,14130.444,2014.960,208,-59,67,36535
2.153625,-176,1200,650,-41,-31,-25,-8036.582,-387.156,14128.633,2020.059
2.173614,-122,1047,563,43,-20,-37,-8053.168,-392.325,14118.448,2024.214
2.193603,-101,1364,602,158,-20,-27,-8092.648,-395.308,14095.381,2026.927
2.213623,-159,2058,796,319,-38,9,-8155.069,-391.006,14059.355,2027.791
2.233612,-212,2623,982,427,-66,70,-8219.062,-373.112,14022.938,2024.960,209,-48,80
2.253631,-289,2867,1119,348,-80,145,-8260.820,-346.267,14000.316,2016.317
2.273620,-313,2810,1164,155,-49,163,-8267.180,-323.349,13998.319,2007.906
2.293640,-281,2766,1194,-83,-25,88,-8238.648,-314.937,14015.509,2006.599
2.313629,-201,2643,1163,-272,-1,-30,-8190.011,-314.947,14043.867,2007.424
2.333618,-133,2474,1091,-350,22,-46,-8142.862,-306.475,14072.549,1999.666,207,-60,66
2.353637,-100,2190,1023,-304,26,64,-8114.563,-281.049,14091.846,1982.469
2.373626,-92,1927,945,-164,12,183,-8112.304,-242.776,14096.910,1960.646
2.393615,-100,1655,781,5,-15,254,-8137.120,-203.525,14086.038,1940.312
2.413696,-118,1507,675,193,-35,245,-8190.425,-174.344,14057.430,1926.299
2.433624,-136,1403,505,390,-43,178,-8267.175,-161.374,14013.357,1920.682,214,-58,73
2.453643,-199,1340,457,535,-49,82,-8358.105,-165.734,13958.865,1923.573
2.473632,-223,1290,379,626,-41,-15,-8457.080,-187.357,13897.519,1933.155
2.493621,-243,1291,321,688,-22,-108,-8561.705,-224.284,13830.864,1946.675
2.513641,-241,1332,314,732,1,-184,-8666.930,-273.872,13762.235,1961.028
2.533630,-261,1344,381,731,41,-239,-8763.614,-331.950,13698.089,1971.465,223,-51,73
2.553619,-192,1270,441,654,93,-257,-8840.439,-389.876,13647.046,1971.853
2.573700,-149,1226,481,495,150,-218,-8894.276,-438.315,13612.469,1958.537
2.593628,-133,1364,507,340,196,-128,-8932.641,-471.740,13590.330,1929.706
2.613647,-145,1998,606,245,227,-9,-8965.476,-488.271,13574.114,1886.979
2.633667,-166,2500,893,212,238,101,-8994.452,-491.137,13562.378,1831.924,221,-46,48,36546
2.653656,-144,2537,989,134,265,192,-8995.095,-481.304,13571.020,1766.201
2.673645,-99,2331,953,-140,288,265,-8949.500,-461.531,13610.909,1694.703
2.693634,-30,2323,913,-460,301,284,-8875.446,-441.266,13668.327,1626.040
2.713653,73,2285,927,-563,300,249,-8802.341,-422.512,13723.588,1561.674
2.733642,104,2280,948,-501,275,235,-8742.088,-400.075,13769.480,1500.893,207,-51,41
2.753631,81,2225,946,-399,226,251,-8696.790,-372.321,13804.458,1448.999
2.773651,16,2119,851,-304,149,246,-8663.820,-344.226,13829.634,1412.929
2.793640,-1,1935,742,-215,63,187,-8649.496,-323.237,13840.759,1396.624
2.813659,-1,1832,655,-59,-12,91,-8659.735,-312.112,13834.087,1401.796
2.833648,-30,1825,578,124,-103,-7,-8695.189,-307.198,13809.288,1427.692,226,-48,48
2.853637,-44,1769,477,290,-195,-72,-8751.142,-301.522,13769.668,1469.103
2.873657,-64,1716,441,413,-278,-93,-8820.240,-290.791,13719.913,1522.579
2.893646,-70,1700,372,486,-354,-94,-8897.945,-272.930,13662.794,1586.052
2.913665,-116,1747,341,533,-427,-83,-8979.046,-247.169,13601.434,1658.933
2.933654,-136,1767,307,540,-497,-72,-9056.049,-212.342,13540.678,1740.223,230,-58,54
2.953643,-128,1816,301,494,-562,-52,-9122.957,-167.607,13484.832,1827.102
2.973663,-171,1864,307,404,-611,-28,-9173.006,-111.307,13438.614,1919.025
2.993652,-166,1850,307,274,-665,3,-9203.426,-40.442,13404.259,2014.095
3.013641,-184,1829,325,131,-717,60,-9216.425,47.169,13380.811,2108.225
3.033661,-179,1860,313,19,-756,134,-9218.936,150.582,13363.680,2199.097,229,-52,40
3.053650,-148,1886,391,-45,-784,213,-9216.078,268.757,13349.434,2284.670
3.073669,-139,1926,381,-79,-798,299,-9211.995,403.416,13335.330,2362.377
3.093658,-138,1972,458,-92,-816,403,-9208.619,551.395,13319.601,2433.300
3.113678,-131,2009,402,-86,-818,478,-9207.135,705.168,13302.127,2494.046
3.133667,-96,2058,436,-86,-783,528,-9205.959,860.631,13284.305,2544.075,228,-55,22,36560
3.153656,-107,2071,433,-85,-733,564,-9206.724,1013.090,13265.222,2584.413
3.173675,-80,2086,447,-61,-677,571,-9211.658,1156.702,13243.806,2616.183
3.193664,-53,2090,464,-24,-596,559,-9223.008,1287.031,13220.141,2634.951
3.213653,-7,2134,480,19,-484,544,-9239.281,1402.638,13195.893,2640.478
3.233673,19,2185,484,44,-376,515,-9257.121,1503.332,13173.154,2636.122,249,-62,25
3.253662,44,2188,512,49,-287,475,-9273.725,1589.389,13154.125,2622.271
3.273681,89,2181,494,36,-194,437,-9289.056,1662.899,13138.606,2600.126
3.293670,137,2093,478,28,-122,403,-9304.909,1725.926,13124.393,2574.025
3.313659,165,2060,397,43,-74,370,-9325.974,1780.216,13107.759,2545.410
3.333648,201,1993,371,98,-37,345,-9357.791,1826.999,13084.247,2516.292,281,-47,21
3.353668,205,1988,320,188,-18,331,-9404.838,1869.068,13050.069,2487.314
3.373657,220,2017,303,303,-2,334,-9467.732,1907.781,13004.593,2457.320
3.393676,234,2032,270,407,11,347,-9542.500,1944.108,12950.630,2424.407
3.413726,242,2044,239,474,38,362,-9622.700,1977.840,12892.932,2387.368
3.433654,308,2030,235,495,64,366,-9701.734,2009.237,12835.759,2349.050,281,-54,21
3.453674,316,2062,237,472,71,351,-9774.264,2039.564,12782.669,2311.440
3.473663,345,2054,205,419,66,333,-9836.687,2069.426,12736.279,2275.890
3.493682,314,2045,203,350,56,311,-9889.178,2097.687,12697.119,2241.087
3.513672,275,2024,225,282,64,286,-9931.302,2121.448,12666.490,2205.486
3.533691,272,1974,176,211,91,255,-9964.994,2137.375,12644.147,2165.984,297,-55,15
3.553680,295,1924,222,154,146,220,-9993.941,2143.828,12627.858,2120.796
3.573669,304,1958,200,128,205,192,-10023.037,2139.394,12613.957,2070.082
3.593689,330,1927,272,134,275,163,-10053.044,2122.935,12602.160,2012.571
3.613678,331,1861,247,128,351,130,-10079.197,2094.968,12596.179,1947.458
3.633667,377,2506,312,88,425,99,-10106.136,2053.819,12591.943,1877.833,311,-55,-5,36568
3.653656,485,2695,307,121,493,50,-10135.073,2000.169,12588.152,1803.738
3.673675,516,2921,333,86,522,22,-10154.228,1945.390,12591.891,1728.243
3.693695,504,3106,433,9,530,11,-10167.720,1888.843,12599.930,1651.343
3.713684,490,3134,422,-6,556,-5,-10174.301,1829.328,12613.173,1574.949
3.733673,441,3055,439,-78,551,-31,-10167.070,1764.438,12637.008,1502.963,329,-59,-20
3.753662,442,2963,449,-175,551,-102,-10145.283,1688.646,12672.173,1439.846
3.773681,422,2663,437,-261,543,-201,-10110.370,1604.279,12716.887,1386.692
3.793731,373,2395,422,-342,526,-274,-10063.832,1516.832,12769.517,1339.173
3.813690,351,2149,397,-404,511,-301,-10012.435,1428.881,12824.669,1293.343
3.833679,347,1842,402,-415,506,-300,-9962.068,1343.012,12877.613,1247.403,323,-55,-17
3.853668,327,1648,378,-394,497,-281,-9914.874,1261.350,12926.623,1200.884
3.873687,317,1475,309,-357,485,-255,-9875.151,1183.783,12968.572,1153.956
3.893676,319,1281,264,-287,471,-229,-9848.809,1108.954,12999.142,1108.568
3.913665,270,1217,162,-174,454,-220,-9840.932,1034.832,13014.500,1069.295
3.933685,215,1188,180,-23,417,-232,-9853.305,958.071,13013.328,1040.770,306,-60,-5
3.953674,203,1302,158,123,380,-277,-9879.187,877.002,13000.720,1024.318
3.973693,188,1340,232,196,336,-329,-9905.850,794.050,12986.270,1017.768
3.993682,143,1484,283,178,302,-365,-9921.929,711.267,12978.976,1015.400
4.013702,90,1525,265,79,296,-371,-9920.187,629.986,12984.739,1012.426
4.033691,57,1466,288,-59,298,-369,-9898.869,547.131,13005.281,1005.548,297,-53,4
4.053680,41,1400,299,-197,335,-378,-9859.214,458.566,13039.749,992.963
4.073700,40,1303,330,-316,385,-392,-9807.540,363.478,13083.119,973.376
4.093689,98,1328,356,-382,442,-398,-9748.786,263.475,13131.267,947.106
4.113678,109,2432,295,-420,482,-401,-9686.760,160.437,13180.887,916.835
4.133697,168,2282,973,-411,493,-407,-9639.029,53.373,13219.374,877.417,280,-70,-5,36560
4.153686,101,2991,920,-328,594,-403,-9557.824,-49.256,13280.463,842.796
4.173706,226,3088,1091,-630,511,-418,-9452.065,-154.182,13357.379,806.573
4.193695,374,2698,984,-767,562,-393,-9332.867,-246.003,13442.645,753.542
4.213684,526,2522,892,-825,572,-238,-9220.042,-303.800,13522.788,684.220
4.233703,546,2593,980,-719,509,-10,-9133.715,-323.860,13584.443,607.209,267,-54,3
4.253692,436,2651,1099,-527,395,157,-9065.467,-322.185,13632.743,545.221
4.273681,377,2402,1155,-477,228,154,-8980.291,-313.349,13690.231,518.831
4.293701,321,1977,1089,-668,44,47,-8865.311,-307.550,13764.890,524.313
4.313690,317,1629,1055,-833,-60,-62,-8739.080,-305.085,13844.518,547.867
4.333679,291,1384,1000,-847,-127,-106,-8620.477,-299.722,13917.450,580.993,254,-53,27
4.353698,260,1191,940,-745,-180,-102,-8526.533,-287.832,13973.808,619.289
4.373718,221,1024,834,-540,-230,-79,-8468.145,-271.507,14007.519,664.556
4.393707,180,1066,804,-287,-291,-81,-8447.949,-253.732,14017.269,720.688
4.413726,125,1090,764,-37,-356,-109,-8458.938,-237.135,14007.292,788.246
4.433685,45,1325,796,140,-408,-138,-8486.098,-220.773,13986.710,863.003,258,-54,53
4.453704,-37,1497,893,202,-436,-149,-8511.121,-205.870,13966.726,940.443
4.473693,-71,1470,900,142,-431,-166,-8518.377,-194.609,13957.114,1016.745
4.493682,-90,1389,861,7,-399,-181,-8507.070,-187.784,13958.799,1087.137
4.513702,-71,1457,871,-94,-345,-185,-8490.681,-183.180,13964.007,1147.484
4.533722,-95,1529,884,-87,-288,-154,-8481.349,-175.679,13965.831,1194.507,255,-52,85
4.553711,-96,1558,943,-35,-236,-86,-8478.512,-162.583,13964.820,1227.858
4.573700,-111,1803,1030,-3,-187,-17,-8481.346,-145.376,13961.599,1246.925
4.593689,-129,2371,1117,32,-124,45,-8490.418,-124.635,13955.982,1250.311
4.613708,-97,2555,1248,65,-62,114,-8497.798,-96.992,13952.640,1239.878
4.633697,-111,2196,1367,-1,-39,183,-8498.693,-59.909,13953.902,1221.752,256,-48,77,36593
4.653717,-104,1747,946,-64,-18,236,-8486.886,-16.753,13962.700,1204.546
4.673706,-58,2141,915,-51,-37,251,-8512.187,21.939,13949.030,1184.133
4.693695,-57,2516,1054,286,-20,257,-8585.128,61.072,13905.973,1162.417
4.713714,-118,2549,1036,532,-45,282,-8663.246,105.324,13858.409,1147.604
4.733703,-96,2220,894,446,-92,278,-8718.536,149.255,13823.983,1139.197,255,-57,67
4.753692,-31,1953,745,301,-108,244,-8765.922,191.850,13794.307,1128.859
4.773712,6,1963,711,312,-83,258,-8824.675,237.109,13757.324,1113.707
4.793701,1,2020,667,407,-80,298,-8895.178,288.233,13712.391,1094.757
4.813720,3,1979,654,462,-82,344,-8967.038,342.210,13665.964,1073.307
4.833709,-16,1935,645,445,-72,346,-9031.224,389.108,13623.870,1054.131,268,-53,59
4.853729,-49,1907,624,383,-63,276,-9082.429,420.882,13589.518,1045.357
4.873718,-39,1797,594,299,-66,143,-9119.565,431.603,13563.882,1050.618
4.893707,-50,1725,574,219,-61,-9,-9146.265,422.869,13544.998,1065.592
4.913726,-13,1665,574,169,-38,-118,-9168.258,401.957,13529.241,1084.686
4.933715,-7,1610,523,153,-22,-170,-9189.934,376.599,13513.634,1104.715,275,-53,43
4.953704,-22,1584,519,166,-19,-181,-9215.614,352.198,13495.085,1125.403
4.973724,-40,1585,542,202,-30,-170,-9245.203,331.544,13473.558,1146.721
4.993713,-47,1575,524,221,-47,-149,-9276.460,315.350,13450.504,1169.284
5.013794,-79,1565,541,231,-67,-134,-9309.657,302.368,13425.789,1192.674
5.033752,-63,1574,498,246,-80,-121,-9344.512,292.987,13399.736,1215.220,280,-51,52
5.053711,-61,1707,549,254,-84,-93,-9379.695,288.260,13373.595,1233.128
5.073730,-57,1774,572,245,-69,-52,-9411.926,286.633,13350.101,1242.470
5.093719,-38,1908,599,211,-34,-14,-9440.252,285.410,13330.024,1243.411
5.113739,-12,1916,566,192,7,4,-9467.622,281.345,13311.097,1238.995
5.133728,-13,1874,587,185,33,0,-9492.894,273.258,13293.862,1232.464,268,-62,27,36552
5.153747,-15,1997,601,167,60,-22,-9514.297,258.004,13279.684,1223.526
5.173736,-20,2127,629,141,104,-55,-9530.918,230.682,13269.244,1212.839
5.193725,-16,2263,683,101,150,-119,-9537.065,189.135,13266.346,1203.371
5.213714,-18,2336,700,15,196,-198,-9526.851,135.084,13275.095,1195.049
5.233734,-10,2358,718,-105,231,-258,-9499.688,73.555,13296.022,1183.953,268,-48,25
5.253753,9,2356,746,-210,276,-278,-9461.663,8.804,13324.731,1167.828
5.273742,29,2321,758,-267,306,-272,-9419.575,-55.338,13356.239,1146.674
5.293731,65,2261,697,-284,325,-251,-9379.115,-117.321,13386.456,1121.019
5.313720,95,2241,685,-255,335,-225,-9346.542,-176.976,13410.919,1092.485
5.333740,99,2208,692,-184,335,-206,-9325.178,-233.927,13427.318,1062.498,268,-51,18
5.353729,84,2192,716,-111,323,-183,-9310.978,-286.599,13438.449,1032.988
5.373748,114,2141,662,-74,301,-168,-9300.018,-335.181,13446.960,1005.997
5.393737,88,2106,644,-55,272,-156,-9292.961,-379.047,13452.477,981.578
5.413757,83,2060,650,-32,245,-138,-9289.270,-417.693,13455.578,958.046
5.433746,68,2018,595,-10,226,-109,-9288.415,-451.180,13456.834,933.190,262,-52,37
5.453765,85,1947,575,7,220,-80,-9291.411,-479.990,13455.716,904.682
5.473724,126,1866,549,35,224,-42,-9298.864,-503.461,13451.937,870.906
5.493744,131,1807,510,64,229,2,-9311.787,-521.578,13444.805,831.403
5.513733,142,1786,483,106,238,46,-9331.481,-535.261,13433.376,785.375
5.533722,127,1796,469,152,255,86,-9357.581,-548.085,13417.521,735.410,253,-47,33
5.553741,122,1811,476,192,269,89,-9387.200,-564.318,13398.844,684.423
5.573761,160,1806,425,213,282,75,-9417.006,-584.136,13379.610,632.648
5.593750,195,1809,441,201,298,64,-9443.491,-604.322,13362.479,578.678
5.613739,246,1799,430,178,312,78,-9467.362,-621.633,13347.202,519.867
5.633758,249,1823,403,165,323,112,-9491.320,-635.420,13331.815,457.411,262,-57,23,36515
5.653747,259,1743,374,174,325,130,-9516.801,-648.172,13315.023,394.920
5.673736,233,1755,369,183,317,128,-9541.963,-664.498,13297.792,336.980
5.693756,227,1753,275,176,308,78,-9565.867,-688.975,13280.572,285.204
5.713745,248,1707,237,172,315,20,-9590.970,-720.052,13261.767,236.209
5.733764,280,1694,103,192,322,-8,-9622.827,-752.949,13237.601,188.720,255,-42,28
5.753753,290,1720,81,256,309,-15,-9667.422,-783.461,13203.835,145.978
5.773742,301,1829,56,351,266,-21,-9724.040,-808.557,13161.035,108.868
5.793762,266,2026,102,415,216,-11,-9781.989,-825.707,13117.191,74.977
5.813751,221,2183,138,383,178,19,-9824.693,-836.086,13084.714,45.514
5.833740,196,2238,177,225,141,30,-9838.665,-845.243,13073.681,23.181,272,-45,14
5.853759,206,2179,179,-4,113,4,-9820.017,-857.444,13086.918,7.278
5.873748,208,2125,242,-230,118,-24,-9775.002,-874.811,13119.430,-5.610
5.893737,243,2123,238,-386,134,-50,-9714.539,-895.846,13162.838,-17.349
5.913757,289,2137,303,-464,140,-66,-9649.118,-919.011,13209.267,-25.529
5.933746,288,2127,362,-476,124,-87,-9584.504,-941.404,13254.645,-29.588,259,-55,11
5.953765,234,2110,435,-459,99,-93,-9523.369,-962.776,13297.104,-31.023
5.973755,237,2092,468,-428,90,-95,-9465.323,-982.954,13337.009,-33.188
5.993744,251,2101,488,-407,92,-84,-9410.967,-1000.617,13374.091,-39.899
6.013763,326,2059,510,-372,109,-53,-9362.657,-1014.274,13406.876,-54.851
6.033783,392,1992,487,-319,133,8,-9323.292,-1018.988,13433.789,-81.382,265,-52,10
6.053772,416,1895,413,-245,147,82,-9299.965,-1013.394,13450.109,-117.004
6.073761,415,1908,355,-110,142,152,-9298.853,-998.408,13451.601,-156.089
6.093780,396,1980,314,57,119,187,-9324.621,-978.501,13434.657,-198.511
6.113769,405,2061,255,243,119,211,-9373.343,-957.636,13401.408,-247.116
6.133758,416,2093,198,384,148,229,-9437.279,-937.835,13356.697,-303.809,266,-58,32,36544
6.153778,447,2063,75,478,190,242,-9511.731,-921.275,13303.371,-366.046
6.173767,476,2045,-42,549,222,229,-9596.083,-912.004,13241.410,-428.880
6.193786,498,2091,-123,621,236,178,-9689.872,-913.876,13170.910,-483.492
6.213775,539,2184,-153,674,218,77,-9789.606,-926.795,13094.613,-520.769
6.233825,512,2207,-128,695,163,-42,-9885.720,-944.626,13020.147,-539.823,258,-45,33
6.253784,468,2232,-158,633,99,-101,-9967.982,-962.141,12955.741,-545.721
6.273773,437,2327,-155,518,53,-127,-10033.250,-978.841,12903.999,-545.906
6.293762,439,2314,-122,393,35,-123,-10079.229,-993.463,12866.991,-546.036
6.313751,421,2252,-71,245,35,-94,-10103.617,-1003.862,12846.985,-547.344
6.333770,413,2186,-78,93,30,-65,-10108.821,-1010.760,12842.422,-545.646,271,-55,9
6.353790,389,2155,-62,-25,-1,-67,-10105.473,-1019.170,12844.761,-536.894
6.373779,379,2128,-43,-68,-31,-101,-10099.386,-1027.728,12849.660,-517.543
6.393768,330,2102,-28,-86,-79,-134,-10092.291,-1032.071,12856.014,-488.690
6.413879,296,2034,-24,-96,-141,-138,-10084.454,-1028.969,12863.705,-453.367
6.433776,278,1999,-58,-97,-187,-113,-10080.612,-1016.344,12868.988,-415.798,271,-51,-17
6.453796,287,1991,-46,-52,-234,-74,-10085.340,-991.251,12868.440,-376.872
6.473785,251,1993,-18,16,-288,-22,-10099.151,-952.846,12861.586,-338.033
6.493774,245,2007,5,74,-332,35,-10115.993,-904.344,12852.749,-301.885
6.513794,211,2000,-8,77,-343,91,-10131.364,-848.593,12845.088,-272.942
6.533783,238,1966,24,65,-326,150,-10143.984,-788.765,12839.339,-253.481,266,-46,-3
6.553772,273,1973,46,49,-291,201,-10153.452,-727.542,12835.619,-245.797
6.573791,313,1930,55,34,-235,251,-10160.431,-668.042,12833.242,-250.405
6.593780,304,1939,44,21,-173,269,-10164.330,-616.050,12832.561,-260.203
6.613800,344,1924,30,2,-124,236,-10166.534,-576.596,12832.425,-270.996
6.633789,350,1943,6,-6,-80,178,-10168.171,-548.550,12832.149,-280.663,266,-58,-5,36525
6.653778,354,2020,55,-5,-52,124,-10168.884,-528.781,12832.229,-288.985
6.673797,334,2023,100,-18,-31,89,-10166.136,-516.115,12834.804,-294.183
6.693786,326,2027,114,-57,-28,38,-10155.016,-511.615,12843.850,-291.296
6.713775,302,2020,151,-127,-36,-30,-10134.071,-515.521,12860.506,-278.676
6.733795,291,1954,160,-198,-48,-96,-10104.693,-525.067,12883.642,-258.218,295,-57,-9
6.753784,260,1916,169,-256,-63,-134,-10068.426,-536.556,12912.029,-232.089
6.773773,264,1868,170,-297,-83,-154,-10028.137,-546.389,12943.409,-203.745
6.793792,247,1823,148,-318,-100,-142,-9988.315,-551.763,12974.350,-175.525
6.813812,260,1792,150,-300,-112,-115,-9955.620,-550.185,12999.831,-150.800
6.833801,240,1760,176,-229,-119,-65,-9934.355,-539.811,13016.735,-131.304,287,-53,-14
6.853790,276,1739,167,-143,-126,-10,-9925.234,-521.129,13024.570,-119.022
6.873809,314,1728,196,-53,-115,55,-9926.007,-497.524,13024.938,-115.184
6.893798,339,1782,143,11,-94,95,-9934.893,-471.577,13019.106,-117.570
6.913787,337,1746,147,69,-80,117,-9949.960,-444.720,13008.508,-121.147
6.933776,306,1787,127,102,-88,110,-9968.102,-420.304,12995.420,-121.534,278,-55,15
6.953796,295,1831,107,120,-79,79,-9985.974,-404.690,12982.186,-121.800
6.973785,330,1907,157,107,-41,40,-10001.334,-400.199,12970.461,-125.429
6.993805,392,1877,156,86,13,3,-10012.070,-404.146,12961.989,-131.829
7.013794,360,1897,161,45,42,-25,-10014.754,-413.465,12959.591,-134.830
7.033783,344,1891,165,-16,37,-68,-10009.911,-428.295,12962.900,-129.995,288,-45,10
7.053802,317,1915,138,-63,19,-123,-10003.281,-448.873,12967.439,-117.693
7.073791,310,1937,131,-56,8,-166,-10002.440,-472.258,12967.412,-99.106
7.093780,269,2024,175,-5,-19,-201,-10009.336,-496.136,12961.360,-74.973
7.113800,235,2113,180,48,-36,-212,-10021.287,-519.633,12951.321,-50.222
7.133789,239,2119,131,76,-35,-203,-10036.279,-539.596,12938.950,-30.590,281,-47,5,36560
7.153808,230,2116,151,96,-17,-155,-10053.300,-553.673,12925.156,-19.787
7.173828,228,2148,112,112,0,-96,-10073.784,-561.708,12908.850,-19.887
7.193817,273,2144,65,145,34,-28,-10098.436,-563.449,12889.475,-31.097
7.213806,307,2087,55,174,58,36,-10127.228,-559.761,12866.958,-52.549
7.233795,302,2140,36,205,80,91,-10159.768,-552.033,12841.453,-82.985,285,-41,6
7.253814,387,2152,-14,236,110,139,-10196.791,-540.590,12812.232,-123.852
7.273803,426,2181,-8,262,136,190,-10234.697,-525.723,12782.043,-171.450
7.293823,475,2162,-18,258,152,216,-10269.221,-511.761,12754.133,-220.750
7.313812,516,2157,-33,220,161,207,-10295.997,-500.369,12732.118,-265.826
7.333801,560,2098,-71,159,139,167,-10312.997,-491.219,12717.958,-299.631,276,-49,-4
7.353820,570,2088,-61,83,89,115,-10322.895,-482.821,12709.730,-320.803
7.373809,565,2044,-37,40,36,72,-10327.621,-471.794,12706.031,-331.433
7.393798,524,2078,-3,-1,-21,53,-10324.826,-457.682,12708.832,-330.912
7.413849,533,2146,24,-64,-77,29,-10313.830,-442.780,12718.560,-320.192
7.433838,522,2049,49,-128,-130,-5,-10295.587,-426.474,12734.387,-299.723,292,-51,-5
7.453888,478,2027,40,-179,-176,-29,-10272.309,-407.548,12754.442,-270.599
7.473816,434,2016,85,-201,-214,-41,-10249.743,-387.289,12773.875,-237.339
7.493835,370,1932,100,-183,-230,-49,-10231.826,-368.691,12789.394,-201.561
7.513824,354,2034,141,-138,-229,-73,-10219.218,-355.675,12800.407,-161.495
7.533813,362,2088,150,-97,-220,-119,-10211.228,-350.530,12807.398,-118.067,289,-53,-10
7.553833,343,2068,133,-73,-213,-159,-10205.116,-348.930,12812.638,-74.793
7.573822,315,2045,167,-63,-199,-163,-10199.964,-348.188,12816.930,-35.229
7.593811,338,1993,176,-54,-178,-148,-10197.666,-346.706,12818.847,0.240
7.613800,326,2036,112,-25,-161,-129,-10199.093,-343.981,12817.745,32.025
7.633819,342,1983,150,2,-157,-116,-10204.392,-340.695,12813.494,64.086,291,-45,7,36544
7.653808,359,1937,140,28,-167,-118,-10214.141,-334.891,12805.669,97.241
7.673828,324,1947,131,63,-185,-110,-10228.115,-324.555,12794.455,132.915
7.693817,301,1988,81,96,-209,-94,-10245.609,-308.943,12780.409,169.229
7.713806,263,2092,128,116,-232,-72,-10266.662,-290.757,12763.422,203.992
7.733825,244,2096,158,140,-224,-54,-10286.697,-272.474,12747.135,235.803,285,-51,-1
7.753814,216,2148,195,112,-207,-45,-10297.407,-254.766,12738.289,264.413
7.773834,230,2157,170,34,-178,-36,-10297.107,-240.697,12738.348,285.618
7.793823,249,2058,175,-45,-128,-27,-10287.382,-232.115,12746.040,299.640
7.813812,276,2004,212,-108,-78,-27,-10272.366,-227.758,12758.058,306.610
7.833831,280,1938,200,-130,-30,-18,-10256.903,-227.508,12770.478,307.435,291,-57,-2
7.853851,329,1978,261,-119,10,-24,-10244.892,-232.542,12780.055,306.155
7.873840,324,1938,236,-80,32,-44,-10237.687,-241.077,12785.669,306.179
7.893829,341,2027,230,-50,27,-66,-10234.327,-251.242,12788.119,308.012
7.913818,351,1951,246,-23,24,-76,-10235.443,-263.456,12786.925,310.261
7.933838,318,1928,278,12,30,-86,-10239.814,-277.708,12782.994,315.577,281,-49,-9
7.953827,316,1938,248,39,24,-110,-10247.358,-294.425,12776.398,322.572
7.973816,294,1943,224,64,29,-122,-10258.940,-313.961,12766.450,329.788
7.993835,282,1940,186,90,37,-135,-10275.846,-336.671,12752.110,335.816
8.013824,322,1870,154,136,53,-142,-10299.515,-363.201,12732.203,338.418
8.033844,263,1880,168,189,84,-147,-10329.590,-394.426,12706.965,335.349,292,-53,9
8.053833,251,1870,170,236,134,-148,-10365.195,-432.922,12676.920,326.263
8.073822,240,1889,171,279,194,-162,-10404.341,-481.468,12643.454,310.454
8.093841,253,1830,136,302,266,-187,-10444.364,-542.412,12608.463,288.339
8.113830,231,1853,113,309,340,-218,-10485.215,-615.293,12571.793,259.123
8.133850,228,1884,26,327,419,-247,-10526.428,-701.887,12533.435,223.867,281,-57,-4,36535
8.153839,226,1953,43,332,491,-288,-10568.846,-804.188,12492.198,182.188
8.173858,241,1952,2,350,576,-339,-10608.985,-923.948,12450.413,135.634
8.193847,218,2040,-25,320,659,-400,-10641.586,-1060.481,12412.094,85.953
8.213836,260,2003,-17,275,733,-462,-10666.490,-1212.169,12377.034,33.263
8.233825,239,1991,-10,227,797,-507,-10683.001,-1373.935,12345.880,-21.571,275,-41,-17
8.253845,203,1954,-24,181,841,-542,-10694.376,-1543.653,12315.731,-75.239
8.273834,184,2023,-54,168,866,-583,-10703.758,-1718.742,12283.920,-127.415
8.293853,189,2001,-19,167,880,-609,-10709.237,-1898.328,12252.051,-176.888
8.313842,129,2076,5,139,886,-637,-10709.080,-2080.482,12221.861,-220.825
8.333831,104,1992,-3,112,874,-673,-10704.829,-2264.095,12192.203,-257.164,256,-60,-21
8.353851,45,1993,-10,83,839,-702,-10698.433,-2445.514,12162.170,-282.921
8.373840,5,1970,-63,81,782,-729,-10695.897,-2622.065,12127.139,-300.829
8.393829,37,1941,-92,124,723,-729,-10700.790,-2789.596,12085.053,-313.310
8.413849,-51,1914,-78,178,655,-714,-10715.339,-2943.860,12035.213,-322.902
8.433838,-90,1954,-119,254,587,-663,-10741.128,-3082.959,11977.001,-332.249,235,-62,-28
8.453857,-171,2036,-150,334,519,-611,-10775.708,-3206.283,11913.145,-340.972
8.473846,-171,2020,-130,384,451,-552,-10816.818,-3315.440,11845.571,-349.559
8.493866,-185,2099,-148,415,393,-495,-10859.357,-3410.839,11779.037,-360.912
8.513855,-205,2035,-184,414,362,-426,-10900.722,-3494.492,11715.731,-373.978
8.533844,-189,1993,-213,386,321,-371,-10938.231,-3566.698,11658.478,-386.134,208,-64,-36
8.553833,-233,1958,-182,354,276,-327,-10972.031,-3629.539,11606.878,-395.972
8.573852,-265,1889,-171,308,238,-292,-11001.449,-3684.595,11561.424,-400.985
8.593841,-276,1916,-201,266,187,-282,-11030.662,-3734.981,11517.403,-399.081
8.613861,-244,1820,-257,264,146,-283,-11062.190,-3777.702,11473.389,-392.022
8.633850,-275,1890,-239,266,80,-264,-11094.635,-3806.446,11432.855,-381.206,172,-64,-32,36540
8.653839,-295,1977,-299,247,5,-207,-11124.281,-3822.019,11399.161,-370.277
8.673919,-324,2041,-338,195,-25,-141,-11145.679,-3829.429,11376.012,-362.095
8.693847,-350,2153,-351,112,-24,-96,-11155.360,-3834.158,11365.128,-355.626
8.713867,-327,2090,-279,16,-7,-60,-11152.064,-3843.565,11365.239,-353.883
8.733856,-336,2211,-270,-75,47,-57,-11131.453,-3860.627,11379.626,-354.764,159,-72,-42
8.753875,-341,2180,-209,-206,131,-59,-11091.996,-3887.550,11408.862,-357.610
8.773864,-366,2236,-163,-341,200,-66,-11033.151,-3924.167,11453.100,-363.890
8.793853,-318,2201,-128,-460,276,-75,-10961.317,-3971.016,11505.604,-370.201
8.813873,-273,2107,-157,-526,332,-109,-10881.314,-4027.835,11561.538,-373.917
8.833862,-329,2136,-104,-565,349,-166,-10802.453,-4093.162,11612.431,-374.059,163,-73,-50
8.853851,-255,2110,-99,-514,367,-219,-10731.528,-4166.874,11651.998,-371.269
8.873870,-228,2159,-74,-439,366,-285,-10670.768,-4243.727,11680.263,-363.830
8.893859,-282,2174,-19,-370,321,-322,-10619.707,-4314.940,11701.143,-349.009
8.913849,-286,2074,-80,-314,239,-329,-10578.486,-4376.305,11716.299,-327.660
8.933899,-338,2086,29,-263,160,-316,-10550.583,-4424.373,11724.150,-299.765,151,-78,-36
8.953857,-429,2045,-56,-175,68,-290,-10539.761,-4455.743,11722.796,-266.997
8.973877,-481,2063,0,-72,-29,-245,-10545.512,-4473.692,11711.422,-237.230
8.993866,-428,2102,19,29,-56,-190,-10561.159,-4481.161,11694.857,-216.488
9.013855,-487,2117,-63,107,-72,-122,-10582.632,-4480.157,11675.983,-207.264
9.033874,-438,2065,-30,140,-62,-44,-10605.538,-4474.567,11657.245,-211.818,155,-67,-14
9.053863,-446,2114,-45,158,-19,20,-10627.225,-4466.344,11640.285,-230.347
9.073883,-430,2086,-103,168,40,79,-10645.949,-4457.608,11625.943,-257.647
9.093872,-353,2062,-51,150,64,113,-10663.233,-4447.981,11613.018,-290.126
9.113861,-356,2164,-119,145,80,125,-10678.908,-4434.681,11602.910,-320.072
9.133880,-338,2208,-84,130,35,134,-10692.954,-4420.386,11594.675,-346.214,139,-73,-6,36568
9.153869,-340,2128,-99,97,36,121,-10702.685,-4404.251,11591.329,-362.812
9.173889,-347,2184,-54,43,-10,99,-10707.596,-4388.666,11592.438,-371.253
9.193878,-351,2149,-70,-3,-42,64,-10709.028,-4373.841,11596.860,-366.747
9.213867,-368,2124,-27,-50,-99,22,-10708.770,-4359.457,11602.980,-351.661
9.233886,-475,2183,16,-76,-132,-14,-10706.553,-4343.464,11611.706,-328.266,144,-71,-20
9.253875,-431,2118,-71,-103,-133,-24,-10699.704,-4326.094,11625.220,-301.546
9.273864,-428,1952,40,-157,-168,-5,-10689.189,-4304.932,11643.355,-276.592
9.293884,-486,2112,43,-163,-163,16,-10673.226,-4282.343,11666.719,-258.621
9.313873,-472,2048,-28,-198,-132,66,-10655.475,-4259.701,11691.409,-249.385
9.333892,-352,1946,-76,-194,-81,112,-10639.348,-4237.258,11714.201,-250.723,155,-74,-24
9.353881,-347,2016,12,-163,-47,136,-10624.228,-4212.840,11736.508,-259.952
9.373901,-438,2125,67,-134,-25,163,-10607.870,-4190.758,11758.711,-280.704
9.393890,-390,2086,-17,-130,60,203,-10587.781,-4169.180,11783.777,-307.978
9.413910,-260,2023,51,-158,77,232,-10565.091,-4147.180,11810.988,-340.195
9.433899,-279,2167,71,-163,89,243,-10538.915,-4121.545,11842.253,-374.964,151,-76,-20
9.453888,-269,2091,24,-191,76,277,-10508.913,-4092.186,11877.854,-410.842
9.473877,-115,1860,106,-228,70,307,-10479.112,-4059.486,11914.107,-445.278
9.493896,-170,1982,89,-216,44,297,-10453.595,-4023.192,11947.773,-471.609
9.513885,-223,2034,132,-171,-21,258,-10438.327,-3987.301,11972.388,-490.015
9.533874,-162,2024,140,-111,-50,229,-10432.173,-3951.085,11989.142,-504.564,165,-68,-16
9.553894,-129,1979,165,-63,-85,213,-10432.951,-3909.912,12001.591,-513.200
9.573883,-117,2034,246,-26,-135,205,-10434.728,-3867.084,12013.603,-520.466
9.593902,-125,1988,64,-31,-139,196,-10438.237,-3827.631,12023.153,-521.231
9.613891,-45,1858,43,-10,-148,148,-10451.345,-3795.450,12022.193,-515.992
9.633880,-145,1862,149,68,-187,66,-10475.324,-3765.816,12011.067,-505.883,173,-74,-1,36566
9.653900,-152,1872,42,155,-179,39,-10509.453,-3739.878,11989.794,-494.961
9.673889,-121,1871,-61,223,-171,11,-10552.391,-3718.586,11959.268,-480.106
9.693878,-99,1836,-8,289,-203,-51,-10604.778,-3705.828,11917.498,-462.797
9.713897,-209,1895,-28,362,-188,-116,-10664.007,-3698.750,11867.548,-441.537
9.733886,-187,2010,-32,414,-166,-156,-10723.955,-3701.000,11813.382,-422.866,182,-61,-6
9.753906,-305,2139,-13,408,-131,-183,-10779.932,-3711.778,11759.446,-408.204
9.773895,-234,2015,-85,386,-65,-193,-10827.396,-3732.211,11709.627,-397.689
9.793884,-297,1935,23,322,-13,-214,-10866.624,-3757.714,11665.266,-391.240
9.813903,-267,1994,-74,297,56,-210,-10896.762,-3788.691,11626.981,-393.908
9.833892,-164,1925,-116,244,128,-176,-10922.807,-3822.727,11591.093,-401.281,177,-83,-20
9.853912,-163,1894,-112,231,145,-175,-10945.473,-3858.630,11557.451,-410.324
9.873901,-104,1920,-100,203,154,-176,-10968.378,-3892.769,11524.082,-414.717
9.893982,-183,2050,-61,213,110,-205,-10991.497,-3925.285,11491.157,-409.714
9.913910,-185,2134,-202,187,77,-225,-11011.469,-3954.853,11462.332,-396.309
9.933899,-217,2172,-213,143,22,-236,-11028.374,-3978.875,11438.569,-371.604,178,-72,-28
9.953918,-196,2106,-179,77,-60,-247,-11040.883,-3996.006,11421.523,-339.216
9.973907,-226,2090,-150,27,-95,-231,-11048.181,-4005.660,11412.172,-300.237
9.993896,-218,2092,-103,-25,-147,-223,-11050.113,-4008.643,11410.367,-254.459
10.013916,-248,2109,-148,-81,-179,-209,-11047.366,-4005.070,11415.308,-203.186
10.033905,-327,2075,-154,-137,-235,-192,-11041.037,-3998.721,11424.493,-148.703,175,-76,-32
10.053924,-260,1969,-114,-163,-237,-186,-11035.704,-3990.828,11433.022,-89.251
10.073913,-356,1980,-36,-149,-269,-210,-11032.194,-3981.530,11439.967,-26.454
10.093902,-310,2035,-78,-131,-271,-221,-11031.091,-3971.451,11444.502,37.658
10.113922,-401,2075,-61,-112,-289,-219,-11032.180,-3961.520,11446.529,98.892
10.133911,-348,2127,-87,-94,-275,-203,-11033.242,-3953.005,11447.815,155.838,156,-78,-41,36599
10.153930,-341,2021,-124,-95,-255,-195,-11035.575,-3945.566,11447.249,210.976
10.173919,-265,1901,-4,-72,-263,-197,-11041.640,-3936.250,11443.532,262.924
10.193908,-415,1998,3,-29,-252,-188,-11050.557,-3922.182,11438.475,313.688
10.213928,-457,2064,-80,-12,-258,-163,-11062.090,-3906.920,11431.070,363.600
10.233917,-465,2068,-74,-3,-265,-146,-11074.681,-3889.360,11423.324,409.167,165,-80,-39
10.253906,-487,2113,-122,1,-256,-111,-11086.030,-3870.150,11417.525,444.330
10.273895,-510,2107,-62,6,-218,-60,-11096.953,-3850.163,11412.791,466.384
10.293914,-446,2024,-34,17,-154,-3,-11105.811,-3832.318,11409.827,474.936
10.313903,-409,2100,-15,18,-84,31,-11111.072,-3815.090,11410.362,477.744
10.333923,-365,2152,-90,-3,-66,44,-11114.236,-3794.793,11413.650,487.174,143,-79,-35
10.353912,-337,2119,-115,-31,-146,23,-11117.481,-3769.263,11418.094,506.786
10.373901,-341,2010,-134,-60,-207,19,-11123.778,-3736.223,11421.391,538.004
10.393921,-366,1965,-157,-48,-308,-15,-11134.053,-3697.406,11421.979,579.539
10.413910,-383,1993,-103,-29,-348,-30,-11149.855,-3652.788,11418.330,628.518
10.433929,-404,1963,-54,2,-409,-28,-11167.977,-3602.866,11413.731,676.629,151,-83,-43
10.453918,-438,2037,-99,8,-405,7,-11187.340,-3547.704,11409.183,723.317
10.473938,-439,2167,-133,14,-417,27,-11204.667,-3490.483,11406.836,769.077
10.493927,-462,2274,-165,-14,-428,45,-11220.035,-3430.311,11406.806,814.865
10.513916,-344,2180,-135,-34,-453,64,-11233.393,-3366.313,11409.451,859.461
10.533905,-394,2155,-130,-51,-468,81,-11245.110,-3297.966,11414.550,902.448,152,-79,-47
10.553955,-416,2172,-19,-61,-461,100,-11256.028,-3226.016,11420.752,946.829
10.573913,-358,2126,-66,-64,-481,108,-11265.744,-3151.435,11428.388,989.366
10.593933,-453,2151,-113,-74,-473,126,-11275.162,-3074.834,11436.214,1031.779
10.613952,-378,2090,-86,-71,-464,134,-11286.291,-2999.882,11441.192,1074.660
10.633941,-404,2157,-114,-49,-470,117,-11299.745,-2928.343,11442.165,1119.306,162,-70,-44,36566
10.653930,-383,2188,-170,-27,-469,89,-11315.542,-2861.858,11438.563,1167.476
10.673950,-324,2082,-164,-4,-483,53,-11331.228,-2799.356,11433.426,1216.175
10.693939,-369,2097,-171,-8,-463,39,-11344.314,-2737.908,11429.865,1266.496
10.713928,-292,2031,-66,-32,-461,27,-11353.036,-2677.077,11430.049,1315.764
10.733917,-337,2027,-171,-57,-446,30,-11357.531,-2617.190,11434.108,1361.400
10.753936,-373,1970,-90,-88,-393,55,-11359.016,-2558.365,11440.905,1403.086,190,-74,-58
10.773925,-266,1910,-29,-99,-390,59,-11356.632,-2501.470,11451.468,1438.355
10.793914,-329,2001,-94,-124,-331,79,-11352.717,-2445.131,11463.384,1470.852
10.813995,-322,2181,-115,-130,-316,95,-11348.789,-2387.860,11475.097,1503.556
10.833923,-206,2208,-114,-128,-349,95,-11343.786,-2329.580,11487.580,1537.045
10.853912,-169,2222,-123,-151,-373,91,-11336.752,-2268.246,11501.838,1573.616,181,-65,-53
10.873932,-177,2176,-106,-175,-399,95,-11327.193,-2201.575,11518.631,1613.798
10.893921,-113,2132,-109,-188,-454,93,-11316.318,-2130.282,11536.449,1657.894
10.913940,-158,2085,-77,-197,-476,90,-11306.239,-2055.371,11552.464,1708.919
10.933929,-196,2000,21,-191,-500,75,-11298.799,-1979.129,11564.082,1768.509
10.953918,-237,1994,87,-151,-553,31,-11293.410,-1905.807,11571.182,1835.748,188,-79,-42
10.973938,-316,2041,46,-125,-551,-13,-11290.885,-1835.215,11573.014,1910.150
10.993927,-239,2007,40,-108,-552,-36,-11292.246,-1764.128,11569.067,1991.267
11.013946,-184,1974,36,-62,-623,-64,-11299.158,-1689.061,11558.288,2077.862
11.033935,-225,1989,20,-18,-674,-57,-11313.677,-1607.907,11538.730,2169.906
11.053955,-389,2134,-41,40,-722,-58,-11334.612,-1522.431,11510.763,2268.597,198,-71,-45
11.073944,-318,2161,7,89,-773,-61,-11359.693,-1436.196,11476.484,2370.751
11.093963,-290,2073,-140,125,-803,-73,-11387.562,-1349.994,11437.747,2472.716
11.114044,-353,2102,-230,142,-792,-61,-11417.506,-1263.260,11395.730,2572.449
11.133941,-299,2109,-149,162,-798,-60,-11447.191,-1177.395,11352.588,2670.158,198,-71,-45,36566
11.153930,-319,2079,-228,164,-801,-59,-11474.518,-1091.657,11310.963,2764.287,211,-72,-49
11.173950,-284,2111,-184,144,-780,-42,-11498.162,-1005.619,11271.546,2858.089
11.193939,-254,2058,-182,114,-766,-47,-11517.461,-919.736,11233.987,2955.528
11.213928,-262,2027,-171,85,-785,-73,-11531.493,-831.389,11200.074,3054.054
11.233947,-224,1964,-112,47,-789,-61,-11540.077,-734.050,11170.941,3151.713
11.253967,-275,2006,-159,5,-813,-20,-11543.844,-624.001,11145.869,3248.892,209,-70,-60
11.273956,-190,1966,-109,-46,-853,33,-11543.435,-503.896,11123.150,3347.561
11.293945,-99,1912,-167,-84,-892,55,-11540.173,-375.389,11099.792,3451.599
11.313964,-217,1852,-204,-85,-977,48,-11535.822,-241.668,11073.486,3560.863
11.333953,-237,1881,-71,-80,-1013,46,-11532.513,-104.053,11042.076,3674.005
11.353942,-263,1991,-119,-53,-1036,44,-11530.473,32.030,11005.386,3789.998,209,-72,-65
11.373962,-338,2025,-145,-18,-1028,26,-11530.707,160.610,10963.223,3906.427
11.393951,-199,1937,-157,22,-1009,5,-11533.127,281.241,10916.879,4020.579
11.414001,-249,1973,-133,56,-995,-16,-11539.103,394.496,10865.209,4132.327
11.433960,-319,1973,-215,105,-932,-26,-11548.154,500.611,10808.082,4243.858
11.453949,-340,1969,-139,147,-918,-50,-11559.294,597.865,10746.929,4354.791,226,-72,-63
11.473968,-381,2065,-168,177,-881,-73,-11570.907,688.434,10684.770,4462.207
11.493957,-394,2023,-245,191,-852,-83,-11581.798,772.463,10624.665,4562.584
11.513946,-349,2019,-239,180,-786,-70,-11591.740,851.289,10567.300,4655.585
11.533966,-284,2027,-271,162,-724,-59,-11598.201,928.153,10514.337,4743.880
11.553985,-369,1993,-297,133,-712,-65,-11601.140,1003.424,10464.734,4830.266,237,-62,-74
11.573974,-364,2028,-251,109,-699,-71,-11600.204,1076.327,10417.715,4917.665
11.593963,-265,2073,-239,88,-686,-91,-11596.594,1148.730,10371.436,5006.812
11.613952,-229,1754,-364,80,-705,-101,-11590.823,1224.076,10328.361,5090.663
11.633972,-331,2038,-259,72,-744,-70,-11587.627,1298.481,10284.331,5168.058,237,-62,-74,36560
11.653961,-340,2113,-326,87,-683,-48,-11581.980,1369.773,10239.430,5250.805,245,-67,-74
11.673980,-405,2080,-348,66,-681,-92,-11572.590,1439.774,10197.412,5333.894
11.693969,-212,2044,-198,32,-649,-86,-11559.374,1515.014,10159.281,5413.875
11.713958,-186,1999,-133,5,-695,-75,-11541.017,1596.207,10124.197,5494.827
11.733947,-141,1995,-207,-38,-708,-75,-11517.360,1681.287,10091.663,5578.304
11.753967,-268,2090,-227,-64,-711,-90,-11489.821,1767.436,10061.522,5662.277,253,-71,-84
11.773956,-285,2123,-288,-96,-692,-85,-11458.751,1854.397,10035.057,5743.804
11.793975,-315,2036,-190,-128,-681,-77,-11423.173,1941.965,10013.514,5822.788
11.813964,-102,2055,-80,-165,-665,-83,-11383.596,2030.392,9993.738,5903.547
11.833953,-190,2051,-115,-173,-695,-110,-11339.245,2117.429,9975.400,5988.725
11.853973,-271,1973,-201,-183,-703,-149,-11290.266,2202.902,9955.721,6082.447,268,-67,-81
11.873962,-225,1892,-128,-185,-738,-193,-11238.346,2287.034,9931.342,6186.513
11.893951,-358,1894,-184,-158,-783,-244,-11185.738,2369.091,9898.943,6301.827
11.913971,-460,1967,-218,-102,-825,-286,-11135.724,2445.695,9856.031,6427.155
11.933990,-453,2026,-240,-37,-853,-317,-11089.765,2518.360,9804.632,6555.883
11.953979,-513,2005,-227,25,-859,-312,-11049.886,2589.833,9746.584,6680.742,271,-74,-76
11.973968,-425,2038,-217,59,-849,-268,-11016.820,2662.304,9684.362,6796.349
11.993957,-447,1986,-257,90,-823,-212,-10989.221,2733.724,9619.946,6903.320
12.013977,-472,2017,-400,105,-793,-178,-10964.963,2802.585,9553.030,7006.436
12.033966,-490,2109,-324,127,-803,-166,-10942.740,2870.384,9485.428,7104.887
12.053985,-270,2123,-399,129,-767,-138,-10921.867,2940.289,9416.635,7199.300,278,-77,-76
12.073974,-274,2288,-473,107,-791,-110,-10899.791,3013.915,9350.038,7288.559
12.093963,-341,2383,-537,76,-790,-88,-10874.799,3092.430,9287.822,7372.070
12.113983,-316,2221,-450,30,-785,-64,-10844.509,3175.496,9233.953,7448.650
12.134002,-278,2135,-465,-59,-732,-34,-10806.988,3266.506,9186.979,7521.555,278,-77,-76,36560
12.153991,-342,2106,-444,-116,-756,-35,-10762.047,3364.118,9145.530,7593.139,276,-68,-68
12.173980,-289,2165,-353,-178,-784,-39,-10711.939,3466.798,9104.841,7666.353
12.194000,-456,2110,-415,-200,-796,-34,-10658.593,3574.017,9060.696,7743.385
12.213989,-429,2019,-365,-186,-854,-48,-10602.924,3681.251,9017.424,7819.712
12.233978,-537,2113,-377,-209,-824,-49,-10545.358,3788.802,8976.582,7892.832
12.253997,-490,2129,-318,-232,-792,-37,-10488.403,3897.758,8937.025,7960.270,274,-66,-73
12.273986,-339,2179,-199,-237,-804,-9,-10432.913,4008.476,8898.282,8021.374
12.294006,-390,2109,-259,-252,-778,27,-10378.715,4121.652,8858.246,8078.437
12.313995,-243,2114,-371,-255,-765,39,-10322.405,4235.427,8818.991,8134.490
12.334045,-213,2039,-130,-268,-767,27,-10262.178,4348.016,8780.805,8192.396
12.353973,-235,1982,-246,-264,-783,1,-10198.748,4458.357,8740.430,8255.235,289,-77,-65
12.373993,-188,2091,-325,-240,-807,-29,-10134.115,4564.888,8693.114,8326.265
12.393982,-216,2142,-280,-203,-850,-60,-10067.769,4665.655,8639.094,8406.733
12.414001,-220,2134,-335,-151,-894,-118,-9997.926,4759.551,8583.217,8494.231
12.433990,-189,2038,-279,-129,-904,-162,-9926.576,4847.804,8525.661,8585.477
12.453979,-246,1872,-243,-100,-914,-191,-9854.724,4932.106,8466.008,8678.761,303,-73,-59
12.473999,-325,2099,-230,-80,-895,-201,-9783.532,5014.548,8403.532,8772.279
12.493988,-273,2063,-161,-68,-867,-183,-9713.938,5092.984,8340.036,8864.544
12.514007,-507,2103,-181,-47,-831,-182,-9645.825,5167.773,8276.933,8954.328
12.533996,-353,2005,-172,-46,-794,-187,-9575.741,5239.240,8215.388,9044.246
12.553985,-438,2016,-72,-47,-800,-205,-9507.356,5309.322,8154.686,9130.050,307,-66,-43
12.574005,-216,1968,-213,-53,-770,-187,-9440.691,5379.772,8093.955,9211.663
12.593994,-248,2018,-225,-52,-776,-162,-9376.218,5452.001,8031.534,9289.355
12.613983,-321,2056,-296,-56,-784,-135,-9313.634,5524.734,7966.402,9365.116
12.634002,-295,2017,-235,-37,-798,-118,-9253.903,5598.977,7898.224,9437.701,307,-66,-43,36560
12.653991,-297,2103,-298,-36,-796,-91,-9192.722,5676.065,7828.780,9509.037,308,-65,-26
12.674011,-336,2082,-242,-49,-799,-81,-9129.830,5754.095,7759.665,9579.124
12.694000,-327,1932,-301,-64,-809,-82,-9065.449,5832.425,7690.970,9648.050
12.713989,-285,1986,-174,-63,-805,-88,-9001.531,5909.604,7620.670,9716.472
12.734008,-369,2112,-164,-54,-788,-80,-8938.515,5986.732,7548.933,9783.200
12.753997,-324,2155,-301,-53,-781,-64,-8874.983,6067.315,7475.093,9847.882,312,-64,-29
12.774017,-318,2136,-313,-63,-832,-53,-8810.645,6152.119,7400.851,9908.925
12.794006,-208,2122,-306,-90,-822,-29,-8744.958,6242.356,7322.783,9968.499
12.813995,-315,2055,-301,-98,-867,-9,-8678.019,6337.183,7240.297,10027.244
12.834015,-289,1995,-295,-117,-900,7,-8608.843,6432.287,7151.641,10089.746
12.854004,-276,1978,-325,-81,-921,0,-8537.020,6525.238,7057.443,10157.189,311,-67,-14
12.874023,-340,2116,-391,-41,-954,-19,-8463.780,6614.627,6957.660,10229.249
12.894012,-397,2016,-507,-14,-968,-25,-8390.813,6703.635,6855.631,10300.063
12.914032,-294,2143,-411,-20,-971,-12,-8316.603,6795.598,6751.145,10368.772
12.934021,-399,2252,-620,-27,-967,9,-8239.547,6890.502,6646.067,10435.328
12.954010,-228,2195,-500,-54,-1011,5,-8158.931,6986.163,6544.017,10499.364,314,-57,-22
12.974029,-172,2025,-479,-107,-1018,-16,-8070.721,7083.201,6447.311,10562.165
12.994018,-212,2073,-154,-138,-1008,-59,-7973.279,7180.924,6355.668,10625.538
13.014007,-271,2084,-364,-164,-991,-103,-7868.131,7277.731,6266.978,10690.535
13.034027,-275,2038,-585,-178,-987,-137,-7759.170,7373.856,6180.453,10754.485
13.054016,-293,2084,-184,-205,-1021,-148,-7648.300,7471.213,6096.878,10814.249,321,-57,0
13.074005,-226,2095,-335,-225,-996,-151,-7534.530,7569.815,6015.172,10871.149
13.093994,-353,2223,-361,-240,-1003,-160,-7420.624,7665.007,5935.896,10926.233
13.114013,-302,2109,-478,-240,-989,-166,-7308.362,7757.261,5858.677,10978.346
13.134033,-434,2099,-326,-233,-995,-154,-7200.874,7849.081,5780.633,11025.382,321,-57,0,36529
13.154022,-409,2090,-254,-237,-935,-119,-7098.647,7940.755,5701.057,11067.385,330,-62,-1
13.174011,-470,1976,-368,-216,-875,-64,-7001.242,8031.998,5616.664,11106.670
13.194000,-327,1951,-378,-209,-889,-36,-6906.962,8120.833,5531.225,11143.919
13.214019,-279,2108,-400,-192,-881,-35,-6812.623,8206.381,5444.637,11181.897
13.234008,-317,2162,-270,-189,-909,-48,-6717.468,8289.544,5359.671,11219.110
13.254028,-289,2163,-298,-194,-889,-51,-6620.485,8373.132,5274.523,11254.984,320,-60,18
13.274017,-259,2072,-217,-204,-894,-49,-6522.783,8458.246,5189.906,11287.678
13.294036,-275,2040,-221,-226,-874,-46,-6421.970,8544.696,5108.686,11317.386
13.314026,-402,2023,-313,-252,-866,-68,-6317.850,8631.412,5033.556,11343.819
13.334015,-313,2089,-171,-285,-833,-90,-6211.541,8717.610,4964.064,11367.213
13.354004,-275,2045,-239,-311,-805,-96,-6105.326,8806.225,4898.157,11385.029,310,-57,42
13.374023,-225,2024,-153,-347,-802,-95,-6000.462,8896.501,4836.549,11396.927
13.394043,-279,2015,-209,-370,-783,-86,-5897.641,8987.502,4778.720,11403.591
13.414032,-272,2032,-225,-390,-770,-84,-5794.333,9076.244,4723.764,11409.162
13.434021,-203,1967,-241,-383,-741,-101,-5688.233,9159.536,4669.918,11418.152
13.454040,-216,1980,-177,-360,-734,-137,-5579.697,9235.998,4617.200,11431.544,317,-52,53
13.474029,-310,1933,-160,-321,-732,-162,-5472.952,9305.630,4564.498,11447.831
13.494018,-321,1997,-91,-278,-726,-174,-5369.920,9369.954,4513.447,11464.386
13.514038,-354,2001,-28,-257,-664,-159,-5270.553,9429.845,4467.520,11479.372
13.534027,-261,2175,-26,-247,-629,-172,-5171.758,9487.289,4427.684,11492.402
13.554077,-271,2161,-62,-258,-607,-196,-5072.278,9543.644,4391.502,11503.955,320,-51,75
13.574035,-135,2002,-138,-270,-599,-210,-4969.347,9598.846,4355.961,11516.456
13.594024,-218,2062,-85,-258,-634,-237,-4861.361,9653.256,4319.166,11530.917
13.614013,-298,1837,-165,-252,-658,-261,-4749.949,9702.385,4280.262,11550.606
13.634033,-265,1971,-24,-198,-644,-279,-4636.099,9744.377,4236.958,11577.448,320,-51,75,36556
13.654052,-354,2039,-125,-142,-657,-288,-4522.692,9780.064,4189.748,11609.352,305,-52,90
13.674041,-423,2161,-35,-91,-693,-289,-4413.724,9811.381,4140.916,11642.341
13.694061,-472,1958,-151,-78,-649,-264,-4309.054,9838.104,4093.291,11675.794
13.714050,-421,1949,-300,-64,-625,-255,-4208.470,9859.832,4047.234,11710.158
13.734039,-468,2064,-189,-37,-614,-261,-4112.063,9878.888,4004.219,11743.090
13.754028,-337,2118,-56,-32,-590,-259,-4020.245,9898.505,3965.106,11771.601,300,-54,97
13.774047,-358,2139,2,-64,-540,-242,-3930.459,9921.699,3930.807,11793.878
13.794036,-343,2015,-144,-105,-513,-239,-3839.390,9949.483,3899.769,11810.762
13.814026,-206,1998,-54,-144,-509,-246,-3747.035,9979.154,3869.332,11825.393
13.834045,-363,1950,-8,-148,-498,-251,-3650.794,10007.064,3835.803,11842.821
13.854034,-328,1969,-33,-116,-532,-262,-3551.627,10032.554,3797.749,11863.656,278,-53,110
13.874054,-340,2079,6,-101,-570,-260,-3450.753,10057.196,3755.281,11886.059
13.894043,-472,1971,-184,-93,-599,-253,-3349.324,10083.020,3709.017,11907.701
13.914062,-417,1903,-152,-105,-624,-232,-3244.694,10111.784,3657.357,11928.242
13.934051,-393,2055,-23,-113,-677,-229,-3139.462,10144.260,3602.572,11945.488
13.954040,-434,2091,-75,-145,-664,-213,-3031.584,10178.732,3544.510,11961.388,273,-60,112
13.974060,-480,2019,-22,-161,-681,-202,-2919.395,10215.404,3481.691,11976.473
13.994049,-402,2002,-115,-163,-738,-203,-2805.285,10253.725,3414.147,11990.435
14.014038,-467,2005,14,-168,-761,-183,-2690.776,10292.460,3337.993,12004.925
14.034057,-529,2050,-23,-159,-796,-157,-2578.803,10328.806,3253.836,12021.378
14.054046,-427,1975,-49,-127,-803,-111,-2470.458,10362.466,3159.284,12040.369,261,-58,121
14.074066,-527,1985,-53,-88,-836,-59,-2365.266,10394.182,3054.326,12061.219
14.094055,-576,2145,-192,-64,-895,-24,-2264.599,10424.738,2943.112,12081.802
14.114044,-638,1993,-193,-59,-891,19,-2165.989,10455.063,2825.854,12101.658
14.134063,-549,2088,-217,-60,-900,49,-2070.016,10485.719,2703.270,12119.921,261,-58,121,36544
14.154052,-458,2077,-142,-63,-934,83,-1978.195,10515.294,2577.948,12136.925,242,-65,114
14.174041,-460,1953,-19,-53,-899,110,-1889.287,10543.098,2451.520,12153.154
14.194061,-463,2015,-175,-41,-872,119,-1802.287,10568.468,2326.542,12168.889
14.214050,-516,2084,-312,-30,-871,112,-1716.446,10587.859,2205.982,12186.884
14.234039,-444,2161,-150,10,-846,99,-1633.284,10600.144,2091.365,12207.823
14.254058,-439,2014,-309,43,-812,75,-1551.586,10608.299,1983.954,12229.306,231,-57,125
14.274047,-541,2060,-207,52,-783,53,-1473.405,10614.106,1883.698,12249.773
14.294067,-553,2114,-120,59,-721,33,-1397.292,10619.435,1790.773,12267.997
14.314056,-550,2185,-347,46,-673,23,-1323.834,10624.011,1703.438,12284.608
14.334076,-309,2007,-260,30,-650,22,-1252.881,10627.264,1623.061,12300.107
14.354065,-387,2051,-252,41,-608,-3,-1180.892,10630.252,1546.913,12314.452,235,-65,119
14.374054,-286,2016,-270,32,-614,-35,-1107.600,10632.978,1477.463,12327.430
14.394043,-402,1994,-238,29,-601,-66,-1034.352,10636.024,1413.170,12338.698
14.414062,-511,2080,-265,10,-548,-80,-960.950,10638.921,1354.050,12348.762
14.434051,-453,2164,-319,1,-519,-84,-885.540,10642.948,1298.309,12356.913
14.454071,-454,2224,-316,-6,-551,-116,-810.243,10647.704,1249.184,12363.045,229,-61,115
14.474060,-549,2045,-322,-17,-491,-137,-732.420,10651.513,1205.379,12368.967
14.494079,-547,2015,-416,-25,-487,-176,-652.363,10652.825,1170.323,12375.682
14.514068,-305,2112,-209,-1,-453,-215,-572.853,10652.834,1144.410,12382.033
14.534088,-615,2186,-411,-3,-417,-252,-493.171,10654.398,1125.220,12385.875
14.554077,-431,2140,-249,-27,-382,-271,-412.713,10656.251,1111.458,12388.465,231,-57,115
14.574066,-452,2065,-241,-34,-348,-283,-331.098,10658.881,1100.128,12389.664
14.594085,-667,2106,-300,-36,-352,-302,-250.668,10660.964,1091.594,12390.515
14.614196,-591,2065,-261,-26,-334,-308,-173.805,10661.454,1087.051,12391.810
14.634063,-560,2058,-322,-29,-290,-300,-101.270,10662.262,1086.839,12391.938,231,-57,115,36544
14.654083,-645,2093,-449,-37,-262,-298,-35.637,10666.464,1092.202,12388.212,214,-58,105
14.674072,-595,2140,-420,-79,-224,-286,23.852,10675.679,1098.681,12379.727
14.694061,-528,2045,-274,-112,-198,-258,80.644,10691.433,1104.175,12365.395
14.714080,-482,2036,-238,-168,-178,-236,137.324,10714.650,1104.439,12344.759
14.734069,-570,2118,-325,-224,-214,-218,194.601,10744.235,1098.551,12318.772
14.754058,-534,2110,-261,-265,-248,-193,254.252,10779.593,1086.216,12287.851,192,-62,114
14.774139,-664,2103,-264,-314,-288,-179,315.976,10820.198,1065.992,12252.451
14.794098,-547,1958,-344,-357,-315,-154,380.719,10865.449,1037.580,12212.941
14.814087,-469,2002,-96,-386,-373,-142,450.428,10914.843,1001.130,12169.490
14.834076,-567,2189,-157,-413,-431,-135,522.199,10968.588,957.196,12121.740
14.854095,-651,2150,-32,-450,-455,-105,595.630,11024.290,903.930,12071.810,200,-51,116
14.874084,-567,1813,-90,-471,-489,-75,669.488,11081.574,843.497,12019.752
14.894073,-428,1869,99,-473,-515,-54,744.955,11136.903,776.240,11968.597
14.914093,-624,1914,-78,-448,-571,-40,816.652,11186.444,705.609,11922.000
14.934082,-472,1770,-64,-406,-542,0,888.055,11225.253,632.072,11884.484
14.954101,-610,1885,-24,-328,-562,16,955.520,11258.282,555.440,11851.792,177,-68,125
14.974090,-630,2047,-107,-286,-580,33,1020.824,11287.959,475.694,11821.550
14.994079,-516,1922,44,-274,-584,57,1085.585,11316.256,389.085,11791.858
15.014099,-458,2021,-56,-289,-587,97,1153.882,11343.199,293.166,11762.223
15.034088,-607,2115,-116,-266,-683,106,1226.666,11370.247,188.805,11730.838
15.054077,-432,2019,28,-278,-765,113,1302.486,11397.164,78.805,11697.753,182,-68,131
15.074096,-443,1916,-18,-303,-739,132,1384.208,11420.869,-41.667,11665.394
15.094085,-458,1869,-178,-272,-824,150,1470.274,11438.940,-172.059,11635.926
15.114135,-641,2055,-28,-231,-892,167,1561.007,11449.015,-309.837,11611.319
15.134094,-488,1978,-158,-186,-928,181,1652.157,11450.481,-449.221,11592.691
15.154083,-327,1958,-24,-135,-935,198,1743.390,11445.375,-592.300,11577.936,182,-83,143,36535
15.174102,-314,2161,-107,-106,-969,216,1836.677,11437.333,-744.032,11562.694
15.194091,-289,2222,-105,-109,-1035,240,1940.272,11426.675,-916.036,11543.949
15.214080,-121,2042,-161,-133,-1178,282,2064.635,11409.475,-1122.947,11521.093
15.234100,-91,2158,-256,-132,-1443,338,2213.869,11384.701,-1371.529,11490.940
15.254089,-282,2125,-376,-158,-1739,408,2378.953,11350.166,-1658.492,11454.219,181,-72,139
15.274078,-197,2054,-415,-162,-1926,497,2558.349,11301.987,-1973.096,11413.250
15.294098,-215,2030,-215,-125,-2109,541,2750.534,11238.736,-2301.689,11369.390
15.314087,-224,2190,-312,-83,-2213,535,2951.042,11162.702,-2631.357,11322.404
15.334106,-224,2137,-390,-37,-2235,508,3158.790,11077.261,-2951.476,11271.227
15.354095,-266,2108,-139,-1,-2208,439,3377.067,10981.898,-3261.621,11215.641,181,-74,142
15.374084,-89,2233,-450,52,-2225,362,3603.842,10876.774,-3567.910,11154.083
15.394104,-100,2239,-541,83,-2286,339,3836.110,10758.981,-3876.560,11087.663
15.414093,-65,2194,-421,83,-2349,340,4079.315,10630.440,-4191.464,11009.995
15.434112,-83,2110,-528,81,-2471,302,4334.948,10491.405,-4513.757,10917.878
15.454101,-107,2122,-483,83,-2568,290,4595.020,10338.602,-4845.369,10814.662,177,-71,111
15.474090,-47,2164,-362,87,-2633,330,4853.440,10174.240,-5186.661,10698.735
15.494110,-100,2215,-429,71,-2724,359,5107.674,10002.044,-5536.841,10566.437
15.514099,-95,2229,-532,7,-2777,395,5359.454,9825.726,-5892.162,10413.896
15.534088,-17,2139,-608,-72,-2815,388,5616.576,9645.713,-6250.757,10236.100
15.554107,86,2043,-487,-150,-2928,286,5896.956,9458.801,-6610.435,10024.698,173,-62,89
15.574096,-116,2112,-498,-169,-3112,178,6176.227,9259.247,-6968.776,9797.558
15.594116,-209,2118,-394,-183,-3107,225,6433.841,9055.827,-7318.510,9564.127
15.614105,-293,2082,-315,-224,-2984,266,6666.906,8858.161,-7647.287,9329.511
15.634124,-204,2021,-371,-250,-2809,251,6875.772,8671.567,-7945.058,9101.603
15.654113,-270,2052,-325,-245,-2567,211,7061.763,8499.400,-8206.157,8887.413,172,-61,76,36546
15.674102,-103,2027,-58,-232,-2306,159,7226.736,8344.624,-8431.863,8687.960
15.694122,-170,2123,-191,-203,-2048,112,7370.163,8205.455,-8628.772,8504.759
15.714111,-126,2167,-239,-195,-1827,88,7495.438,8082.279,-8796.619,8339.670
15.734100,-85,2076,-92,-181,-1597,57,7600.945,7978.681,-8936.643,8193.786
15.754089,-100,1905,-184,-178,-1339,26,7687.141,7893.369,-9055.185,8064.840,175,-66,42
15.774109,59,1981,-129,-162,-1130,15,7758.194,7818.973,-9157.663,7952.781
15.794098,49,2021,-5,-156,-994,22,7820.575,7751.889,-9248.160,7851.992
15.814117,31,2097,-61,-154,-894,13,7876.978,7694.886,-9329.591,7754.748
15.834106,82,2106,-64,-167,-814,-27,7929.873,7650.445,-9403.743,7654.597
15.854095,147,2142,45,-205,-772,-91,7981.205,7614.842,-9473.171,7550.431,179,-59,21
15.874115,175,2160,-18,-229,-751,-132,8031.931,7581.408,-9542.242,7442.538
15.894104,85,2131,-20,-241,-778,-135,8082.695,7545.200,-9613.643,7331.664
15.914123,76,2089,71,-254,-808,-128,8130.745,7508.702,-9685.157,7221.049
15.934112,56,2114,34,-245,-777,-125,8178.014,7472.867,-9752.856,7112.916
15.954132,-11,2080,-46,-228,-745,-125,8223.054,7437.621,-9814.844,7011.950,177,-59,28
15.974121,8,2021,121,-206,-697,-106,8265.353,7400.964,-9873.851,6917.526
15.994201,52,2067,110,-182,-671,-82,8303.170,7364.451,-9930.007,6830.271
16.014129,127,2068,122,-167,-638,-63,8337.913,7327.551,-9982.469,6750.700
16.034118,-22,1958,272,-161,-602,-46,8370.684,7291.420,-10030.613,6677.505
16.054138,44,2043,117,-122,-520,-37,8402.179,7258.165,-10073.594,6609.127,179,-61,28
16.074127,84,1972,96,-110,-489,-48,8434.677,7227.881,-10111.018,6543.447
16.094116,75,2044,193,-98,-500,-77,8466.702,7203.556,-10142.473,6479.923
16.114135,102,2100,150,-92,-440,-107,8498.406,7185.688,-10170.203,6414.468
16.134124,-17,2096,200,-105,-429,-147,8529.319,7174.192,-10192.248,6351.001
16.154144,55,1987,187,-97,-368,-166,8558.469,7165.999,-10210.192,6291.936,178,-60,29,36556
16.174133,69,2067,160,-75,-326,-162,8587.082,7155.911,-10226.587,6237.573
16.194122,31,2056,136,-63,-335,-140,8616.080,7141.899,-10242.196,6187.835
16.214141,98,2128,85,-32,-338,-118,8645.456,7123.044,-10257.175,6143.624
16.234130,53,2063,109,-8,-330,-75,8675.441,7096.818,-10273.805,6103.790
16.254120,94,2143,234,3,-353,-35,8704.737,7061.561,-10295.014,6067.125,179,-54,30
16.274109,40,2106,238,16,-379,26,8733.280,7016.766,-10320.620,6034.487
16.294128,10,2134,135,33,-380,79,8760.287,6967.116,-10349.021,6004.152
16.314117,4,2083,145,32,-385,103,8784.409,6916.502,-10378.806,5975.950
16.334137,54,2128,207,24,-367,125,8808.111,6863.787,-10406.757,5953.188
16.354126,107,2169,166,54,-341,152,8833.236,6808.257,-10432.140,5935.272,176,-55,36
16.374145,73,2232,135,82,-346,159,8860.194,6752.055,-10454.509,5919.915
16.394134,56,2193,141,102,-333,146,8886.903,6700.014,-10475.374,5902.095
16.414215,90,2233,159,78,-318,121,8910.718,6652.263,-10498.301,5879.421
16.434143,58,2177,93,38,-323,112,8929.621,6605.265,-10524.371,5857.081
16.454132,16,2089,161,15,-338,123,8947.540,6559.776,-10550.328,5834.113,169,-70,25
16.474121,45,2165,78,13,-301,119,8966.644,6514.829,-10574.043,5812.172
16.494140,106,2047,154,33,-316,112,8986.038,6468.807,-10594.809,5795.783
16.514129,79,2059,148,66,-295,128,9005.185,6421.340,-10613.005,5785.550
16.534118,71,2060,128,87,-264,145,9023.208,6374.343,-10629.717,5778.756
16.554138,75,2119,68,85,-247,150,9039.788,6329.950,-10644.121,5775.126,177,-71,19
16.574127,30,2123,158,89,-216,150,9053.980,6289.942,-10655.592,5775.453
16.594146,84,2080,189,83,-154,146,9064.287,6256.877,-10664.461,5778.830
16.614135,1,2086,111,70,-112,128,9067.280,6231.682,-10672.148,5787.164
16.634155,88,2074,234,34,-45,132,9061.087,6214.513,-10679.400,5801.929
16.654144,25,2085,176,3,38,145,9046.210,6207.213,-10685.529,5821.640,195,-60,13,36556
16.674163,113,2093,224,-36,98,123,9027.447,6213.118,-10686.829,5842.043
16.694152,84,2035,253,-47,151,61,9007.488,6229.873,-10683.128,5861.745
16.714141,17,2035,217,-61,188,16,8985.791,6254.709,-10673.869,5885.415
16.734161,179,2055,177,-50,248,1,8962.122,6285.700,-10659.419,5914.606
16.754150,148,2067,184,-41,290,-14,8936.685,6320.560,-10638.634,5953.240,184,-54,7
16.774139,174,2124,121,-12,359,-2,8914.787,6356.163,-10611.365,5996.676
16.794159,196,2140,172,33,369,-25,8899.484,6393.136,-10576.938,6040.762
16.814148,175,2124,121,75,379,-65,8889.185,6433.743,-10538.869,6079.228
16.834167,125,2160,101,69,360,-117,8880.527,6477.659,-10501.144,6110.448
16.854156,175,2071,128,46,350,-137,8872.458,6520.425,-10464.781,6139.001,201,-61,3
16.874145,177,2028,199,48,324,-128,8864.788,6557.862,-10431.542,6166.712
16.894134,180,2011,94,47,296,-107,8857.389,6591.194,-10402.073,6191.535
16.914154,75,2048,180,41,266,-97,8849.203,6623.056,-10374.128,6216.079
16.934143,125,2042,161,37,280,-84,8841.351,6656.284,-10345.658,6239.166
16.954132,87,2009,126,37,268,-111,8835.797,6692.834,-10313.978,6260.349,200,-58,11
16.974151,86,2063,154,49,273,-145,8832.666,6733.039,-10276.041,6283.996
16.994171,-17,2093,150,77,315,-164,8829.570,6778.178,-10232.617,6310.624
17.014160,-47,2097,176,88,356,-184,8824.509,6831.885,-10182.698,6340.463
17.034149,-24,2076,166,80,424,-217,8816.182,6895.736,-10125.080,6375.104
17.054138,-51,2127,110,90,503,-242,8804.259,6965.117,-10060.685,6417.959,183,-70,15
17.074157,8,2114,148,106,565,-235,8790.588,7034.294,-9993.014,6466.789
17.094146,-23,2127,46,124,586,-218,8774.118,7101.512,-9925.582,6519.328
17.114166,18,2084,31,121,592,-185,8753.931,7164.066,-9861.428,6575.143
17.134155,40,2048,64,108,580,-139,8732.371,7217.984,-9802.481,6632.736
17.154174,63,2082,121,121,534,-96,8711.453,7261.107,-9748.444,6692.547,192,-70,9,36550
17.174163,142,2156,-9,148,501,-32,8692.453,7292.079,-9700.754,6752.603
17.194183,104,2115,1,156,433,12,8675.871,7313.964,-9659.632,6808.973
17.214233,26,1979,35,150,366,35,8659.967,7331.641,-9623.336,6861.404
17.234161,54,2129,25,134,340,44,8645.887,7346.237,-9590.593,6909.225
17.254181,76,2103,62,134,312,46,8633.345,7357.729,-9560.126,6954.753,183,-58,13
17.274170,22,2072,-27,128,284,53,8621.368,7368.288,-9532.570,6996.133
17.294159,115,2075,10,114,273,47,8609.517,7375.660,-9508.743,7035.274
17.314148,152,2027,55,104,225,66,8596.731,7379.496,-9489.509,7072.758
17.334167,107,2067,-33,89,209,83,8583.592,7380.695,-9475.152,7106.632
17.354156,116,2140,51,72,170,88,8571.529,7382.003,-9463.528,7135.264,184,-61,19
17.374176,53,2089,-80,48,143,69,8560.642,7385.723,-9453.956,7157.140
17.394165,62,2110,81,24,125,44,8550.783,7391.224,-9446.402,7173.201
17.414245,115,2082,-77,7,119,33,8542.242,7394.740,-9440.869,7187.026
17.434173,125,2103,-57,14,90,48,8534.656,7391.469,-9438.112,7203.006
17.454162,154,2127,-41,30,69,83,8530.160,7381.369,-9437.042,7220.072,187,-83,7
17.474151,188,2140,28,49,27,88,8528.031,7369.352,-9436.705,7235.287
17.494171,166,2102,-34,55,15,83,8525.246,7358.876,-9436.183,7249.896
17.514160,149,2084,39,48,34,78,8521.815,7351.149,-9434.573,7263.851
17.534179,129,2183,43,39,44,62,8515.999,7348.036,-9431.335,7278.013
17.554168,130,2120,-9,15,80,57,8504.520,7353.014,-9427.943,7290.791,184,-76,7
17.574188,137,2089,119,-34,111,34,8485.264,7367.366,-9424.088,7303.712
17.594177,213,2125,19,-69,162,24,8459.267,7387.729,-9419.542,7319.147
17.614166,168,2108,-17,-100,211,33,8431.194,7412.388,-9414.368,7333.251
17.634185,155,2091,14,-121,202,8,8402.657,7442.606,-9407.513,7344.188
17.654174,161,2101,59,-139,213,-29,8376.555,7475.696,-9400.531,7349.336,187,-59,23,36568
17.674194,196,2151,-19,-146,199,-56,8350.856,7509.348,-9395.833,7350.282
17.694183,162,2131,67,-170,171,-51,8324.197,7540.658,-9394.107,7350.673
17.714172,255,2089,102,-169,151,-38,8295.873,7570.665,-9394.338,7351.554
17.734192,189,2139,32,-176,151,-24,8267.234,7598.941,-9394.282,7354.715
17.754181,231,2118,61,-153,171,-8,8240.750,7623.720,-9391.149,7362.791,194,-71,7
17.774200,116,2124,61,-118,169,0,8216.620,7646.541,-9383.805,7375.445
17.794189,213,2133,136,-79,191,-4,8194.793,7670.817,-9372.252,7389.198
17.814178,175,2112,210,-58,217,-27,8176.851,7698.390,-9355.114,7402.105
17.834198,125,2168,175,-48,213,-76,8162.174,7731.548,-9332.009,7412.902
17.854187,150,2198,188,-37,235,-123,8145.618,7770.483,-9303.797,7425.852,200,-67,20
17.874176,163,2168,73,-42,281,-131,8124.963,7813.863,-9270.868,7444.123
17.894195,90,2167,23,-36,336,-123,8100.367,7860.341,-9234.058,7467.710
17.914184,108,2070,28,-34,380,-126,8072.717,7910.157,-9192.105,7496.753
17.934173,251,2136,164,-25,439,-124,8043.255,7962.565,-9146.429,7528.737
17.954193,109,2115,51,-27,459,-135,8012.718,8017.578,-9100.157,7558.926,185,-53,32
17.974182,166,2055,109,-47,463,-150,7980.799,8075.117,-9055.198,7585.391
17.994171,178,2017,158,-68,463,-158,7947.101,8133.844,-9014.287,7606.722
18.014190,-4,2098,93,-103,434,-155,7911.077,8193.135,-8976.113,7625.760
18.034179,113,2114,196,-131,427,-149,7871.622,8254.308,-8940.112,7642.891
18.054199,161,2128,136,-152,439,-142,7830.469,8315.417,-8907.671,7656.790,185,-67,38
18.074188,156,2109,98,-180,396,-136,7787.804,8375.793,-8878.730,7668.101
18.094207,258,2032,230,-188,396,-129,7749.512,8430.476,-8850.715,7679.349
18.114196,217,2078,183,-149,357,-125,7716.122,8478.924,-8825.734,7688.378
18.134185,126,2037,292,-139,317,-107,7685.522,8522.424,-8804.333,7695.465
18.154205,144,2115,234,-133,298,-98,7658.008,8562.902,-8783.611,7701.637,188,-67,41,36529
18.174194,1,2205,181,-113,264,-104,7631.978,8604.866,-8759.258,7708.438
18.194183,84,1987,82,-108,286,-126,7608.021,8646.844,-8729.627,7718.753
18.214203,118,2163,335,-72,299,-133,7584.861,8685.409,-8697.483,7734.518
18.234192,62,2123,226,-38,306,-105,7561.572,8721.881,-8663.515,7754.376
18.254211,165,2077,234,-19,329,-98,7537.283,8756.928,-8626.191,7780.092,187,-64,46
18.274200,144,2169,189,11,363,-89,7512.296,8791.264,-8587.760,7808.001
18.294189,52,1969,140,14,355,-84,7487.908,8825.963,-8546.192,7837.835
18.314178,166,2053,176,31,371,-99,7464.333,8860.396,-8501.811,7869.673
18.334198,80,2180,38,55,398,-100,7442.537,8895.702,-8453.835,7902.103
18.354187,91,2075,96,61,382,-127,7418.272,8937.358,-8399.178,7936.127,170,-66,51
18.374206,242,2109,213,37,460,-154,7391.391,8985.777,-8340.963,7967.868
18.394226,56,2123,-27,23,493,-178,7360.138,9040.333,-8282.545,7995.975
18.414245,53,2032,-43,-22,478,-201,7327.291,9100.191,-8219.532,8023.219
18.434265,230,2149,122,-29,527,-228,7294.197,9164.217,-8152.298,8049.054
18.454193,151,2201,45,-44,530,-255,7258.676,9232.407,-8085.781,8070.306,169,-62,50
18.474212,49,2131,188,-79,523,-265,7221.945,9302.658,-8022.465,8085.761
18.494201,-12,2247,218,-112,514,-270,7187.055,9373.128,-7960.182,8097.015
18.514190,22,2279,113,-104,503,-284,7156.067,9444.922,-7894.618,8105.220
18.534210,89,2215,246,-111,498,-321,7125.283,9518.553,-7827.025,8111.756
18.554229,-50,2241,174,-114,509,-320,7091.612,9589.870,-7762.169,8119.581,165,-59,53
18.574218,-53,2253,210,-116,490,-295,7058.290,9658.809,-7698.336,8127.668
18.594207,41,2179,317,-105,482,-294,7028.701,9726.372,-7632.752,8134.591
18.614227,-5,2202,63,-89,482,-312,7003.568,9792.655,-7564.409,8140.582
18.634216,-9,2104,108,-65,440,-342,6978.605,9859.135,-7490.746,8149.888
18.654205,-62,2037,296,-46,478,-340,6955.267,9923.645,-7410.896,8164.531,170,-64,65,36560
18.674194,-16,2216,224,9,510,-351,6932.708,9989.357,-7323.324,8182.582
18.694213,29,1950,110,22,546,-379,6909.855,10060.140,-7222.243,8205.005
18.714203,70,2053,154,64,624,-437,6885.078,10135.365,-7109.433,8231.735
18.734222,-25,2129,54,99,668,-476,6859.684,10213.880,-6987.345,8260.377
18.754211,-24,1970,53,104,721,-514,6834.323,10299.494,-6854.468,8286.383,157,-72,71
18.774231,-1,2155,-9,84,759,-575,6804.954,10394.435,-6712.863,8307.901
18.794220,-43,2276,97,42,808,-627,6769.940,10495.529,-6568.617,8324.691
18.814209,-276,2069,0,-14,835,-634,6730.805,10603.307,-6420.540,8335.359
18.834228,-22,2138,189,-46,870,-677,6688.584,10718.645,-6266.100,8339.359
18.854217,-49,2168,166,-71,898,-719,6641.846,10835.506,-6113.042,8339.295,139,-83,81
18.874237,-68,2157,112,-107,899,-692,6590.181,10952.351,-5961.809,8337.133
18.894226,-29,2172,223,-127,911,-695,6540.884,11071.677,-5803.751,8329.869
18.914215,-91,2113,67,-118,902,-773,6498.934,11190.466,-5634.020,8320.491
18.934204,-208,2158,157,-69,891,-830,6465.766,11300.719,-5454.952,8316.643
18.954223,-156,3109,26,24,875,-851,6442.414,11402.629,-5265.197,8317.962,142,-87,85
18.974243,-979,2392,1143,134,873,-881,6428.746,11498.161,-5055.402,8327.176
18.994232,1066,4776,1393,176,1066,-1068,6335.306,11599.877,-4866.493,8370.152
19.014221,1864,2533,693,264,1475,-82,6010.668,11662.583,-4776.520,8571.832
19.034240,2269,1703,150,262,2359,1423,5504.298,11690.276,-4743.816,8886.607
19.054229,1862,2499,-881,580,2975,1926,5120.659,11717.609,-4538.138,9182.440,104,-104,106
19.074249,-109,3811,-913,1093,2622,-220,4952.158,11822.538,-3950.101,9409.349
19.094238,135,6362,-597,1324,3336,-2362,4879.470,12041.600,-3182.346,9460.377
19.114227,1112,4396,-753,-263,3021,-3696,4855.260,12438.445,-2423.067,9180.181
19.134216,976,4318,-322,-1556,2557,-4068,4830.278,12814.218,-1773.211,8817.901
19.154235,1363,4549,28,-1794,2456,-3637,4745.070,13136.086,-1229.283,8476.546,100,-110,128,36550
19.174224,1347,3546,183,-1585,2504,-2567,4557.047,13381.198,-850.396,8239.485
19.194213,1032,4218,123,-1121,2178,-1506,4364.668,13545.822,-519.794,8100.965
19.214233,800,4177,34,-445,1917,-1373,4192.250,13637.589,-176.034,8052.679
19.234222,925,3446,-129,167,1965,-1254,3963.749,13687.547,155.665,8083.993
19.254242,1277,4138,-415,540,2128,-840,3680.181,13714.397,456.732,8160.785,99,-111,152
19.274231,1325,4153,-484,729,2278,-533,3377.088,13724.243,716.191,8256.083
19.294220,1286,3373,-713,709,2098,-289,3098.845,13725.983,898.273,8344.044
19.314239,1300,3214,-789,576,1701,40,2845.533,13721.572,1028.810,8426.054
19.334228,1061,3402,-792,543,1477,75,2637.403,13708.028,1172.957,8496.686
19.354248,819,3183,-656,498,1322,-245,2487.518,13692.334,1354.206,8540.128,62,-176,229
19.374237,406,3072,-433,311,1182,-598,2372.414,13700.455,1565.324,8523.753
19.394226,237,2410,-184,-120,1210,-839,2292.731,13750.098,1803.204,8417.961
19.414337,165,2978,-390,-702,1204,-1117,2227.271,13838.946,2070.075,8226.363
19.434234,1283,877,-767,-1104,1383,-1269,2145.951,13940.103,2353.320,7997.857
19.454223,574,4384,3730,-1149,1278,-1380,2359.111,13880.169,2686.931,7936.707,101,-168,244
19.474243,-3518,2063,-2079,86,723,-2827,2316.752,14014.973,3091.728,7555.781
19.494262,-999,216,601,-2536,1711,-1567,2373.214,14097.009,3364.443,7263.480
19.514251,-872,1025,49,-1273,1298,-1321,2265.624,14191.239,3669.694,6960.205
19.534240,-965,592,344,-1349,1792,-1334,2072.987,14271.908,3943.142,6700.928
19.554229,-1053,900,495,-912,2234,-860,1805.927,14326.547,4249.315,6470.504,121,-188,277
19.574249,-832,1434,805,-584,2481,-1073,1512.401,14347.030,4596.976,6259.282
19.594238,-981,1423,836,-435,2606,-1253,1200.383,14351.213,4959.394,6036.689
19.614257,-1218,1083,561,-496,2752,-1219,870.501,14350.118,5310.829,5791.965
19.634246,-1234,1033,361,-530,2889,-1135,513.249,14327.276,5656.304,5559.442
19.654297,-1182,1825,284,-247,2993,-1082,107.239,14272.256,5983.946,5377.643,115,-251,329,36529
19.674255,-1200,1938,410,174,3099,-922,-343.047,14191.149,6288.606,5232.825
19.694275,-1121,1989,421,368,3181,-798,-805.075,14095.251,6579.827,5081.048
19.714233,-931,1656,236,313,3225,-770,-1266.749,13991.605,6858.862,4901.202
19.734283,-704,1253,-218,187,3256,-684,-1736.899,13885.550,7096.877,4716.402
19.754272,-731,1285,-575,334,3170,-417,-2232.596,13764.002,7273.714,4593.070,176,-283,367
19.774261,-617,1254,-730,916,3065,-189,-2768.225,13603.803,7399.805,4577.313
19.794250,-458,1512,-987,1664,2980,-90,-3337.663,13404.037,7479.921,4655.966
19.814270,-194,2061,-1199,2216,2848,-21,-3912.057,13173.687,7526.240,4789.668
19.834259,-32,1970,-1315,2386,2610,-45,-4444.758,12926.978,7562.320,4938.026
19.854248,-35,1851,-1303,2280,2368,-137,-4931.485,12687.829,7587.329,5056.413,265,-285,382
19.874237,170,2330,-1416,1986,2265,3,-5390.955,12474.488,7584.022,5122.770
19.894256,179,2092,-1294,1647,2173,231,-5814.002,12279.197,7574.513,5145.957
19.914276,173,1976,-1167,1370,2067,245,-6187.709,12093.126,7578.261,5145.284
19.934265,149,1701,-1034,1129,1940,152,-6521.655,11915.093,7597.100,5120.357
19.954284,176,1430,-845,880,1877,110,-6827.242,11743.399,7631.479,5067.279,365,-238,337
19.974273,189,1387,-806,677,1863,80,-7118.392,11573.346,7674.752,4991.969
19.994262,272,1245,-674,574,1858,66,-7398.090,11398.211,7722.629,4913.806
20.014251,265,1330,-663,583,1807,9,-7669.574,11217.447,7764.161,4847.654
20.034271,284,1298,-671,672,1756,-23,-7937.167,11029.644,7790.412,4805.542
20.054260,318,1219,-616,813,1673,-45,-8197.335,10838.737,7804.440,4780.336,432,-188,254
20.074249,214,1310,-595,858,1566,-70,-8441.007,10647.599,7821.917,4757.212
20.094268,175,1355,-502,768,1523,-140,-8660.497,10452.629,7860.366,4731.641
20.114257,161,1555,-518,623,1507,-269,-8858.164,10255.468,7919.871,4697.804
20.134246,143,1826,-483,478,1507,-324,-9043.309,10059.239,7988.897,4652.227
20.154266,123,2063,-395,396,1497,-326,-9218.359,9861.666,8062.952,4603.655,461,-175,216,36513
20.174255,113,1763,-248,351,1489,-356,-9383.436,9660.834,8146.186,4549.119
20.194275,41,1799,-236,254,1522,-398,-9539.745,9450.589,8251.842,4474.613
20.214264,104,1630,-220,104,1639,-468,-9690.253,9220.622,8383.816,4384.765
20.234253,231,1601,-247,3,1771,-578,-9839.800,8971.613,8529.958,4285.295
20.254272,280,2110,-338,-12,1873,-622,-10001.403,8708.086,8667.867,4176.684,482,-161,154
20.274261,211,2407,-191,97,1965,-555,-10183.709,8430.962,8782.603,4063.527
20.294281,203,2380,-190,234,2055,-471,-10375.956,8143.552,8883.032,3943.256
20.314270,366,2383,-191,284,2145,-448,-10576.655,7835.977,8979.834,3811.803
20.334259,513,2380,-333,325,2292,-451,-10793.069,7502.248,9069.785,3660.652
20.354278,617,2371,-441,395,2484,-415,-11025.727,7141.707,9145.083,3497.462,495,-157,103
20.374298,746,2437,-488,518,2625,-418,-11271.550,6755.081,9200.542,3332.639
20.394287,823,2613,-757,671,2723,-441,-11525.899,6344.958,9232.755,3175.977
20.414337,1009,2610,-868,852,2765,-490,-11790.944,5920.939,9230.620,3024.433
20.434265,1135,2762,-1051,1039,2778,-442,-12052.073,5493.167,9202.507,2884.779
20.454284,1008,3253,-1022,1097,2675,-535,-12274.090,5054.346,9191.241,2785.107,494,-140,51
20.474273,670,3329,-1054,881,2509,-910,-12426.692,4606.813,9239.629,2723.834
20.494262,480,3066,-1186,436,2385,-1202,-12513.179,4167.828,9341.347,2687.792
20.514282,338,3008,-1071,89,2230,-1381,-12576.953,3740.318,9450.666,2636.401
20.534271,267,3089,-945,14,2242,-1161,-12637.113,3336.018,9547.795,2539.567
20.554260,239,3320,-926,-10,2278,-867,-12685.938,2954.059,9644.986,2397.958,473,-130,-27
20.574279,191,3298,-884,-162,2316,-632,-12715.302,2590.515,9753.250,2218.077
20.594299,71,3270,-862,-325,2364,-442,-12725.254,2229.369,9874.861,2005.088
20.614288,-48,3395,-860,-480,2484,-370,-12710.527,1847.068,10015.430,1776.915
20.634277,-89,3492,-783,-654,2627,-466,-12668.535,1433.606,10173.203,1547.370
20.654297,-118,3527,-735,-789,2761,-587,-12603.151,998.906,10338.984,1305.228,413,-119,-102,36540
20.674286,46,3472,-652,-892,2887,-569,-12518.862,557.056,10503.796,1036.092
20.694275,127,3509,-641,-938,3007,-459,-12421.043,123.899,10658.121,736.364
20.714294,166,3639,-593,-932,3047,-290,-12316.888,-292.438,10792.262,413.837
20.734283,91,3668,-539,-843,3031,-152,-12213.655,-694.975,10898.281,80.890
20.754272,-34,3927,-508,-708,3010,-91,-12112.179,-1098.436,10975.395,-254.338,359,-106,-133
20.774292,-155,3414,-428,-587,3054,-123,-12005.604,-1520.177,11029.467,-583.784
20.794281,-249,3399,-468,-575,3116,-259,-11879.537,-1974.894,11072.666,-898.826
20.814270,-312,3800,-462,-617,3227,-466,-11736.403,-2462.700,11098.201,-1207.188
20.834289,-417,3906,-277,-605,3371,-594,-11573.640,-2973.305,11105.866,-1518.383
20.854278,-480,3704,-4,-672,3485,-650,-11373.005,-3500.195,11112.701,-1829.397,316,-89,-115
20.874359,-365,3498,-123,-836,3579,-692,-11123.761,-4034.627,11128.172,-2140.782
20.894287,-323,2683,-255,-1054,3682,-639,-10843.947,-4560.991,11133.815,-2465.720
20.914306,-348,3453,-157,-1043,3711,-524,-10566.971,-5054.968,11103.942,-2815.017
20.934295,-325,2962,165,-702,3713,-364,-10314.058,-5512.439,11025.866,-3177.883
20.954284,-296,2983,1,-451,3586,-339,-10067.050,-5953.213,10917.897,-3528.272,236,-85,-96
20.974304,-133,2335,-92,-348,3519,-397,-9832.989,-6373.858,10774.893,-3876.001
20.994293,100,1828,-330,-113,3446,-404,-9621.816,-6760.817,10595.277,-4229.367
21.014312,134,1846,-322,198,3316,-348,-9450.289,-7092.988,10373.902,-4604.251
21.034301,283,1928,-412,654,3183,-203,-9319.157,-7359.458,10118.353,-5004.603
21.054290,347,1997,-469,1034,3016,-30,-9214.158,-7569.697,9846.585,-5411.022,185,-79,-44
21.074279,431,2058,-565,1214,2790,75,-9116.734,-7740.866,9574.543,-5807.558
21.094299,539,2024,-589,1239,2621,150,-9016.296,-7882.300,9312.817,-6187.295
21.114288,607,1924,-668,1182,2472,229,-8910.989,-7997.966,9068.466,-6544.093
21.134307,625,2074,-725,1088,2288,293,-8799.860,-8095.442,8841.613,-6876.596
21.154297,622,2091,-740,984,2128,320,-8688.303,-8183.057,8629.067,-7178.133,149,-73,-4,36546
21.174316,607,2005,-720,868,1962,258,-8583.169,-8271.981,8428.214,-7436.678
21.194305,502,1899,-709,712,1793,119,-8484.552,-8370.363,8239.357,-7648.388
21.214294,456,1779,-702,521,1645,-22,-8388.313,-8479.873,8069.176,-7813.563
21.234314,345,1705,-622,302,1484,-127,-8291.267,-8596.702,7922.654,-7938.424
21.254303,281,1660,-589,103,1327,-163,-8192.116,-8714.296,7801.696,-8032.387,132,-80,-4
21.274292,160,1586,-493,-54,1185,-154,-8089.505,-8831.110,7704.423,-8102.389
21.294311,68,1446,-413,-199,1069,-137,-7980.583,-8952.371,7627.323,-8150.136
21.314300,4,1222,-335,-349,1003,-134,-7866.561,-9082.636,7563.745,-8176.071
21.334289,-4,948,-300,-486,953,-176,-7752.029,-9221.822,7506.907,-8182.043
21.354309,-7,727,-296,-568,913,-224,-7637.842,-9362.742,7452.039,-8179.546,130,-76,-6
21.374328,-19,567,-289,-578,896,-226,-7525.600,-9495.378,7396.835,-8180.795
21.394317,-12,476,-226,-506,882,-185,-7414.860,-9613.707,7338.704,-8196.056
21.414398,-25,380,-221,-392,889,-117,-7302.436,-9718.111,7276.525,-8229.239
21.434326,-75,337,-200,-293,927,-45,-7184.909,-9814.760,7208.704,-8277.534
21.454315,-101,354,-171,-231,992,0,-7059.067,-9910.555,7131.222,-8338.560,130,-92,14
21.474304,-137,317,-158,-183,1093,17,-6924.813,-10009.161,7039.524,-8410.956
21.494293,-124,284,-144,-141,1197,6,-6782.308,-10112.244,6930.011,-8494.304
21.514312,-128,246,-188,-84,1323,-18,-6628.657,-10218.646,6802.401,-8590.864
21.534332,-114,199,-196,-38,1463,-23,-6463.342,-10327.634,6655.057,-8701.197
21.554321,-90,225,-191,29,1605,-37,-6285.677,-10439.386,6485.693,-8825.004,118,-73,44
21.574310,-39,314,-187,86,1753,-58,-6095.639,-10554.509,6295.183,-8958.326
21.594329,17,429,-179,124,1884,-84,-5892.371,-10669.904,6088.996,-9099.047
21.614318,64,521,-233,146,1992,-72,-5672.776,-10782.560,5872.656,-9246.803
21.634307,107,734,-236,165,2092,-30,-5435.727,-10890.328,5649.048,-9400.920
21.654327,80,1069,-242,181,2180,17,-5185.386,-10995.408,5414.410,-9556.797,120,-85,56,36560
21.674316,139,1446,-149,185,2268,5,-4925.254,-11098.839,5166.881,-9710.634
21.694305,324,1431,-218,181,2336,-4,-4647.580,-11199.797,4918.181,-9859.587
21.714325,521,1511,-269,128,2380,82,-4343.484,-11290.294,4680.445,-10009.609
21.734314,711,1640,-218,132,2436,258,-4016.561,-11356.747,4456.691,-10171.768
21.754303,799,1798,-269,233,2437,432,-3680.310,-11398.718,4240.845,-10342.882,125,-87,97
21.774322,905,2042,-299,322,2420,496,-3351.433,-11424.411,4022.365,-10512.219
21.794311,1015,2197,-333,372,2353,426,-3051.031,-11441.000,3796.212,-10668.596
21.814331,1003,2559,-386,392,2207,255,-2794.609,-11449.499,3566.449,-10808.099
21.834320,922,2644,-396,418,1997,60,-2579.968,-11450.402,3335.966,-10933.381
21.854309,870,2626,-461,424,1828,-62,-2376.789,-11449.452,3111.487,-11046.040,151,-83,118
21.874328,980,2711,-458,369,1800,-30,-2158.455,-11449.175,2892.855,-11150.080
21.894317,1036,2939,-515,313,1829,45,-1928.011,-11449.907,2676.229,-11245.250
21.914337,1162,3214,-498,265,1860,71,-1699.553,-11456.095,2462.136,-11324.430
21.934326,1019,3089,-400,150,1801,18,-1496.105,-11479.133,2240.700,-11375.670
21.954315,815,3176,-313,-40,1721,-204,-1329.233,-11537.196,1990.650,-11384.155,182,-80,127
21.974334,788,2894,-465,-315,1686,-549,-1188.736,-11623.445,1711.890,-11357.257
21.994323,743,2890,-378,-481,1734,-695,-1034.643,-11706.303,1424.144,-11326.925
22.014343,607,3020,-246,-409,1798,-614,-874.301,-11771.205,1142.599,-11305.053
22.034332,373,3644,-51,-314,1775,-575,-712.437,-11827.195,855.453,-11283.330
22.054321,-12,3828,159,-320,1828,-613,-553.169,-11895.025,548.294,-11239.982,205,-73,143
22.074340,-366,3604,203,-512,1892,-745,-410.206,-11989.224,205.958,-11157.206
22.094390,-636,3424,270,-764,1995,-989,-279.026,-12099.361,-190.338,-11042.047
22.114318,-613,3137,325,-910,2177,-1257,-152.404,-12201.436,-628.166,-10915.245
22.134338,-453,3090,446,-847,2288,-1370,-3.495,-12275.163,-1062.001,-10799.442
22.154327,-550,3212,570,-626,2332,-1166,187.926,-12314.336,-1450.692,-10707.602,207,-74,153,36531
22.174347,-699,3361,661,-380,2314,-785,412.469,-12328.522,-1793.301,-10632.823
22.194336,-893,3375,755,-237,2280,-542,647.611,-12329.935,-2123.421,-10558.400
22.214325,-1023,3227,743,-229,2299,-529,883.537,-12326.365,-2464.422,-10471.015
22.234344,-1151,2987,645,-268,2379,-572,1135.057,-12312.037,-2821.325,-10373.088
22.254333,-1095,2804,588,-242,2548,-567,1413.651,-12277.207,-3188.966,-10273.154,196,-87,189
22.274353,-1002,2670,483,-119,2716,-510,1725.856,-12212.216,-3556.765,-10181.750
22.294342,-889,2740,423,86,2849,-417,2069.982,-12111.266,-3916.771,-10105.778
22.314331,-787,2701,321,329,2947,-341,2436.234,-11976.358,-4270.851,-10041.259
22.334350,-666,2559,222,497,3014,-319,2810.069,-11815.019,-4621.823,-9979.129
22.354339,-522,2363,111,578,3036,-330,3183.746,-11635.881,-4963.416,-9913.121,209,-91,218
22.374359,-420,2234,9,622,3011,-307,3553.159,-11444.580,-5286.375,-9843.085
22.394348,-316,2200,-1,659,2929,-256,3918.639,-11244.634,-5584.727,-9769.786
22.414428,-255,2289,23,691,2849,-176,4281.401,-11042.884,-5859.785,-9686.210
22.434326,-144,2277,88,659,2783,-88,4633.000,-10847.752,-6118.361,-9584.502
22.454345,-71,2167,108,540,2703,-37,4965.541,-10663.863,-6366.248,-9462.121,252,-108,224
22.474334,7,1962,77,401,2629,-8,5288.791,-10488.345,-6603.147,-9319.720
22.494354,131,1744,70,335,2600,69,5615.972,-10309.896,-6824.734,-9166.534
22.514343,233,1649,-42,389,2607,145,5952.599,-10114.752,-7026.358,-9017.986
22.534362,348,1601,-77,559,2593,174,6295.447,-9892.335,-7208.615,-8887.088
22.554351,447,1633,-121,768,2552,123,6637.591,-9639.822,-7371.929,-8781.019,297,-91,211
22.574340,535,1801,-155,985,2479,46,6971.239,-9365.251,-7516.111,-8696.976
22.594360,494,1749,-157,1111,2365,-23,7283.194,-9080.807,-7643.788,-8631.451
22.614349,481,1708,-271,1161,2203,-122,7561.851,-8794.215,-7758.383,-8586.216
22.634369,428,1765,-364,1157,2006,-233,7807.629,-8512.689,-7858.745,-8558.657
22.654358,328,1673,-381,1142,1795,-306,8021.738,-8245.590,-7940.991,-8546.230,340,-92,177,36566
22.674347,168,1638,-429,1085,1560,-334,8206.458,-7997.678,-8009.147,-8542.844
22.694366,43,1546,-432,1007,1379,-336,8369.099,-7769.774,-8068.663,-8539.374
22.714355,-27,1512,-434,900,1256,-301,8515.667,-7562.055,-8124.501,-8527.992
22.734344,-73,1369,-397,781,1176,-252,8650.031,-7373.508,-8179.198,-8505.556
22.754364,-144,1261,-394,664,1128,-193,8773.840,-7200.955,-8237.194,-8470.539,365,-67,110
22.774353,-140,1142,-372,553,1114,-157,8891.122,-7035.498,-8300.955,-8424.921
22.794342,-126,1112,-341,482,1132,-142,9007.036,-6873.098,-8368.946,-8368.393
22.814361,-93,981,-301,441,1166,-101,9124.405,-6715.064,-8437.813,-8300.113
22.834381,-138,978,-274,399,1185,-47,9240.886,-6563.545,-8507.692,-8220.736
22.854370,-207,888,-265,348,1203,-4,9356.286,-6415.176,-8581.875,-8129.716,360,-70,64
22.874359,-259,688,-289,293,1249,29,9471.044,-6266.052,-8665.439,-8023.809
22.894378,-273,602,-299,225,1333,48,9586.458,-6109.151,-8761.314,-7902.715
22.914367,-239,677,-373,189,1452,41,9703.815,-5937.589,-8866.963,-7771.319
22.934356,-256,884,-344,194,1555,9,9823.386,-5750.653,-8974.613,-7636.938
22.954376,-220,1084,-354,242,1608,-33,9943.034,-5552.077,-9077.407,-7506.439,363,-60,20
22.974365,-172,1209,-351,306,1609,-70,10059.256,-5348.917,-9172.714,-7382.223
22.994384,-185,1069,-296,319,1546,-106,10161.506,-5150.790,-9267.378,-7263.903
23.014373,-251,918,-346,246,1486,-141,10247.642,-4965.879,-9367.278,-7142.506
23.034362,-321,1148,-511,121,1449,-110,10326.715,-4793.853,-9467.734,-7012.516
23.054351,-391,1473,-441,92,1420,-44,10410.590,-4624.213,-9555.263,-6882.488,351,-62,-5
23.074371,-447,2139,-526,189,1383,-26,10502.115,-4448.256,-9624.565,-6761.789
23.094390,-366,2264,-335,326,1354,-34,10602.118,-4266.383,-9678.840,-6644.438
23.114349,-325,2061,-319,382,1348,-4,10699.974,-4097.884,-9737.517,-6506.466
23.134369,-262,1893,-434,242,1392,141,10791.979,-3950.572,-9810.436,-6333.793
23.154358,-207,1955,-536,64,1466,309,10881.941,-3814.664,-9888.957,-6138.050,355,-64,-34,36544
23.174377,-39,1948,-584,42,1486,378,10979.440,-3679.436,-9953.286,-5939.796
23.194366,142,2088,-548,156,1459,423,11092.910,-3548.822,-9994.848,-5735.124
23.214386,192,2438,-469,269,1439,560,11217.223,-3435.158,-10020.856,-5512.846
23.234375,144,2604,-358,275,1420,711,11332.719,-3332.469,-10049.055,-5283.564
23.254394,42,2583,-374,165,1393,679,11415.041,-3226.358,-10101.721,-5067.357,338,-73,-55
23.274383,-57,2847,-267,-59,1366,469,11457.203,-3104.676,-10186.105,-4875.674
23.294372,-118,2825,-191,-246,1358,201,11466.293,-2962.901,-10297.344,-4705.896
23.314422,-287,3548,-106,-415,1380,-12,11448.433,-2804.327,-10433.315,-4544.281
23.334381,-436,3743,176,-543,1440,-159,11409.728,-2627.004,-10586.586,-4390.510
23.354370,-473,3650,262,-662,1503,-300,11338.873,-2431.096,-10770.380,-4237.227,340,-80,-68
23.374359,-380,3019,356,-902,1590,-440,11239.540,-2223.519,-10980.553,-4073.278
23.394378,-292,2643,93,-1068,1709,-469,11131.427,-2014.533,-11195.326,-3890.125
23.414459,-183,2369,17,-1046,1756,-357,11058.855,-1815.328,-11367.954,-3689.356
23.434387,-243,2627,280,-648,1729,-129,11065.158,-1621.867,-11458.172,-3475.278
23.454376,-331,3215,368,41,1719,37,11133.435,-1415.586,-11479.939,-3269.431,337,-77,-79
23.474395,-317,3357,450,484,1682,-11,11210.451,-1186.193,-11482.470,-3083.349
23.494384,-238,2793,249,437,1677,-197,11252.406,-938.605,-11506.081,-2923.681
23.514373,-266,2988,-48,207,1620,-424,11279.494,-684.963,-11531.434,-2786.628
23.534393,-292,2694,-212,324,1565,-505,11341.329,-430.124,-11511.742,-2665.421
23.554382,-370,2684,-30,664,1456,-476,11437.440,-180.397,-11449.759,-2547.719,310,-66,-50
23.574371,-586,3025,-203,897,1425,-440,11527.288,71.975,-11387.419,-2424.576
23.594390,-541,2941,-126,773,1477,-451,11595.401,332.085,-11338.870,-2302.573
23.614410,-575,2595,-267,631,1512,-518,11632.215,593.551,-11312.658,-2190.538
23.634369,-589,2493,-322,379,1469,-582,11643.465,848.645,-11304.148,-2088.346
23.654388,-570,2274,-326,245,1424,-581,11644.629,1090.526,-11300.288,-1988.034,293,-68,-59,36536
23.674377,-570,2184,-314,196,1352,-524,11640.111,1311.843,-11299.090,-1884.909
23.694397,-553,1662,-334,154,1294,-423,11627.346,1508.950,-11305.585,-1774.004
23.714386,-487,1445,-357,47,1239,-276,11603.165,1684.214,-11324.750,-1647.866
23.734375,-468,1822,-219,-33,1235,-117,11576.882,1841.296,-11347.811,-1499.353
23.754394,-590,2284,-142,-28,1267,22,11547.436,1988.847,-11372.497,-1342.740,241,-73,-91
23.774383,-462,1910,123,-77,1255,40,11491.403,2139.162,-11418.453,-1194.148
23.794403,-353,1720,-55,-359,1281,-20,11381.333,2290.883,-11512.589,-1054.917
23.814392,-432,1953,-30,-806,1296,-19,11235.609,2439.807,-11636.637,-912.447
23.834381,-392,1959,-39,-947,1342,6,11086.079,2588.355,-11757.072,-778.438
23.854400,-289,1799,127,-900,1282,-61,10949.873,2742.756,-11856.316,-663.913,207,-79,-88
23.874420,-433,1951,107,-753,1173,-198,10822.504,2898.798,-11940.923,-565.843
23.894409,-424,1873,220,-707,1115,-248,10700.678,3054.121,-12015.592,-478.341
23.914398,-417,1902,291,-658,1078,-282,10583.240,3210.892,-12081.562,-395.612
23.934387,-527,2165,334,-616,1066,-326,10465.337,3374.949,-12141.632,-320.406
23.954406,-474,2104,460,-622,1071,-402,10339.522,3554.449,-12199.682,-251.727,208,-83,-75
23.974395,-309,1675,545,-683,1130,-499,10192.079,3748.870,-12266.494,-189.884
23.994384,-398,782,448,-828,1163,-573,10056.340,3949.361,-12316.253,-133.769
24.014404,41,1816,404,-390,1156,-636,9994.492,4170.293,-12294.304,-65.632
24.034423,-369,1964,256,-59,1052,-751,9954.183,4346.118,-12266.251,1.431
24.054412,-293,1653,342,-7,895,-501,9931.271,4480.525,-12236.291,57.926,179,-68,-29
24.074401,-356,1305,270,117,692,-389,9925.066,4597.545,-12197.397,120.791
24.094421,-486,1308,148,269,673,-356,9943.575,4713.311,-12137.175,185.517
24.114410,-566,1397,118,451,638,-395,9984.955,4835.241,-12053.955,242.329
24.134399,-595,1359,53,587,585,-503,10039.302,4963.110,-11955.396,289.653
24.154419,-625,1316,15,649,557,-553,10096.717,5086.206,-11853.515,341.237,155,-70,-1,36562
24.174408,-662,1413,-6,665,574,-477,10149.705,5196.869,-11757.622,412.058
24.194397,-642,1445,5,655,635,-322,10193.784,5296.287,-11671.071,507.573
24.214416,-598,1385,19,610,715,-184,10219.511,5392.217,-11599.012,619.640
24.234405,-542,1447,70,490,801,-96,10221.866,5487.224,-11545.134,741.050
24.254425,-527,1536,104,342,871,-29,10199.883,5582.130,-11510.203,867.683,150,-79,-1
24.274414,-433,1533,127,185,925,23,10154.715,5679.191,-11492.441,993.873
24.294433,-422,1505,135,29,964,37,10087.112,5780.667,-11490.317,1114.495
24.314422,-444,1518,159,-120,986,28,10006.210,5886.274,-11496.094,1225.885
24.334411,-460,1532,248,-193,973,-13,9925.142,5994.654,-11499.827,1321.020
24.354400,-434,1367,297,-199,898,-100,9850.388,6102.773,-11498.318,1396.465,126,-72,-14
24.374420,-26,1265,335,-188,797,-166,9792.947,6190.305,-11494.749,1443.777
24.394409,-270,1282,520,-163,410,-159,9776.064,6225.543,-11487.584,1463.572
24.414459,-469,1276,558,48,73,-71,9806.928,6218.624,-11464.612,1466.621
24.434417,-724,1513,603,308,-127,-24,9876.468,6205.794,-11411.256,1470.427
24.454437,-814,1636,344,550,-148,-104,9946.296,6211.757,-11345.521,1483.185,130,-92,-6
24.474426,-801,1807,580,517,-10,-190,10014.311,6226.193,-11276.953,1487.901
24.494415,-698,1728,296,500,-8,-198,10052.772,6237.147,-11235.614,1495.385
24.514404,-503,1119,678,236,39,-64,10072.432,6242.937,-11210.294,1528.590
24.534484,-741,1636,457,298,139,75,10108.002,6252.290,-11162.239,1605.306
24.554412,-640,1820,716,633,378,135,10157.339,6276.579,-11085.915,1723.639,117,-79,6
24.574432,-504,2024,314,733,575,134,10188.422,6320.346,-11010.832,1856.419
24.594421,-394,2176,247,618,646,99,10209.025,6360.854,-10947.328,1976.558
24.614441,-518,2090,230,471,551,123,10211.348,6380.981,-10914.431,2078.960
24.634430,-499,2027,176,251,443,249,10200.457,6381.792,-10905.920,2172.496
24.654419,-830,1909,284,174,347,348,10195.321,6362.151,-10903.468,2264.572,124,-81,-5,36515
24.674408,-728,2268,120,238,302,414,10202.790,6377.225,-10862.082,2384.257
24.694427,-292,2914,84,481,477,143,10229.609,6428.684,-10780.008,2500.798
24.714416,-638,3040,333,533,609,15,10259.663,6422.377,-10741.604,2558.467
24.734436,-868,2981,383,289,106,198,10267.108,6386.321,-10743.203,2611.589
24.754425,-780,2874,394,93,102,393,10234.052,6350.955,-10778.205,2682.404,121,-91,-14
24.774444,-710,2734,265,-160,226,536,10173.218,6319.910,-10837.173,2748.724
24.794433,-578,2695,293,-305,204,531,10114.305,6287.844,-10895.618,2807.988
24.814422,-472,2787,354,-249,177,512,10064.854,6248.635,-10947.046,2872.436
24.834411,-331,2943,427,-173,164,548,10019.967,6199.793,-10998.384,2938.333
24.854431,-233,2873,390,-178,96,579,9972.299,6137.775,-11063.113,2987.296,121,-86,-26
24.874450,-176,2734,344,-290,-51,584,9926.057,6061.577,-11139.455,3013.079
24.894439,-185,2754,264,-328,-207,578,9890.174,5969.622,-11219.225,3018.692
24.914428,-209,2706,191,-309,-368,561,9870.393,5863.461,-11296.505,3003.259
24.934417,-258,2499,133,-256,-526,512,9870.745,5747.030,-11364.357,2971.003
24.954437,-334,2213,33,-151,-643,452,9892.276,5626.013,-11417.293,2927.748,137,-92,-20
24.974426,-425,2202,4,-32,-703,384,9931.943,5505.796,-11451.561,2887.887
24.994445,-401,2491,5,133,-659,367,9987.750,5388.856,-11463.102,2870.158
25.014434,-361,2686,117,311,-546,376,10047.293,5282.608,-11459.373,2874.744
25.034423,-435,2786,143,331,-405,372,10084.565,5200.940,-11460.273,2889.522
25.054443,-467,2414,123,173,-234,309,10087.855,5157.787,-11474.453,2899.097,155,-70,-19
25.074463,-491,2156,50,-93,-70,178,10057.810,5160.411,-11498.892,2901.985
25.094452,-503,2486,26,-277,122,19,10015.429,5203.895,-11515.775,2903.964
25.114441,-460,2701,213,-263,279,-148,9973.713,5277.340,-11516.343,2912.729
25.134460,-410,3200,408,-249,414,-247,9918.913,5370.683,-11517.939,2922.916
25.154449,-329,2978,549,-382,499,-298,9826.016,5481.630,-11545.229,2923.056,177,-76,-20,36546
25.174438,-216,2501,466,-746,541,-301,9678.755,5600.715,-11618.604,2897.785
25.194458,-53,2183,545,-1173,490,-257,9501.504,5705.466,-11721.938,2863.679
25.214447,-58,1962,398,-1251,443,-98,9326.866,5773.592,-11830.854,2853.337
25.234436,-7,1779,361,-1092,407,168,9177.886,5795.248,-11929.409,2882.038
25.254455,9,1866,437,-789,379,432,9066.121,5777.124,-12008.071,2944.817,183,-70,-17
25.274475,11,1952,507,-467,326,584,8991.415,5734.719,-12066.298,3017.837
25.294433,18,1852,547,-245,213,585,8940.820,5681.965,-12113.386,3078.689
25.314453,3,1888,537,-171,100,535,8901.877,5623.024,-12156.189,3130.601
25.334442,57,1701,451,-111,48,535,8876.197,5554.111,-12191.618,3188.235
25.354431,88,1903,388,11,38,587,8866.690,5470.913,-12217.311,3259.395,183,-72,20
25.374450,121,2143,497,159,27,651,8875.615,5374.285,-12232.124,3339.324
25.394439,181,2085,580,281,-10,676,8889.986,5270.621,-12245.646,3415.886
25.414489,169,2162,537,248,-60,680,8891.709,5166.019,-12271.586,3477.551
25.434448,161,1633,474,98,-124,667,8875.971,5064.916,-12313.046,3519.672
25.454437,141,1214,261,-64,-175,642,8846.586,4965.359,-12365.244,3552.365,188,-58,45
25.474456,194,1080,143,-122,-177,665,8822.359,4860.299,-12412.826,3591.748
25.494445,255,1187,170,-7,-170,692,8822.611,4745.890,-12441.942,3643.019
25.514434,289,1448,249,217,-171,694,8848.400,4624.462,-12452.728,3699.346
25.534454,269,1545,377,356,-206,659,8881.537,4505.936,-12459.571,3742.905
25.554443,204,1309,382,292,-267,574,8893.762,4404.823,-12483.721,3753.753,214,-55,29
25.574463,188,976,219,7,-352,430,8878.253,4330.964,-12528.984,3725.502
25.594452,164,1015,123,-238,-410,253,8857.224,4280.165,-12576.315,3674.439
25.614471,184,1027,204,-238,-417,114,8854.459,4232.320,-12609.304,3623.106
25.634460,174,1095,227,-75,-414,101,8867.919,4176.322,-12630.700,3580.389
25.654449,124,838,345,25,-407,137,8883.063,4119.932,-12648.592,3544.840,242,-48,36,36521
25.674469,127,961,274,4,-362,139,8886.194,4073.399,-12670.968,3510.694
25.694458,177,1111,245,-68,-307,114,8886.612,4035.800,-12690.719,3481.600
25.714477,202,897,183,-42,-256,93,8895.014,3998.217,-12702.631,3459.995
25.734466,198,946,143,44,-234,113,8916.473,3952.833,-12704.935,3448.432
25.754516,168,981,157,175,-225,152,8957.318,3897.489,-12694.170,3445.216,254,-58,22
25.774475,84,1217,197,323,-242,170,9017.374,3837.124,-12671.616,3439.333
25.794464,55,1174,222,429,-288,115,9091.353,3782.738,-12640.994,3417.438
25.814483,79,1028,169,451,-357,-2,9165.666,3736.283,-12612.739,3374.168
25.834472,177,1180,176,381,-431,-79,9232.673,3684.779,-12593.286,3320.351
25.854461,213,1433,232,327,-484,-15,9292.337,3608.080,-12582.880,3277.316,262,-54,33
25.874450,178,1821,349,326,-513,194,9346.550,3501.542,-12578.875,3254.004
25.894470,27,1831,441,335,-515,383,9389.920,3386.978,-12582.352,3236.916
25.914459,-83,1670,435,228,-500,387,9405.091,3302.202,-12602.789,3200.761
25.934478,-113,2042,411,-64,-458,174,9390.581,3271.134,-12636.600,3141.408
25.954467,-10,2231,429,-286,-320,-84,9356.379,3285.808,-12672.917,3081.275,265,-57,28
25.974456,37,2572,476,-392,-154,-203,9311.864,3320.768,-12706.114,3041.672
25.994476,-31,2420,566,-403,16,-185,9256.497,3370.291,-12738.057,3022.537
26.014465,40,2632,568,-466,155,-190,9185.116,3443.051,-12771.411,3017.539
26.034484,142,2830,634,-542,327,-244,9102.421,3538.263,-12801.491,3030.492
26.054474,219,3194,670,-573,491,-252,9012.344,3638.353,-12828.617,3066.275,281,-61,12
26.074463,304,3187,745,-550,596,-177,8923.193,3734.400,-12850.390,3119.899
26.094482,359,2986,772,-517,644,-131,8828.895,3833.753,-12872.510,3175.983
26.114471,505,3269,798,-567,662,-161,8723.887,3936.814,-12899.220,3231.230
26.134491,635,3291,832,-634,680,-127,8610.978,4024.178,-12931.867,3295.343
26.154480,684,3196,841,-644,649,22,8496.434,4078.428,-12972.991,3363.622,269,-59,37,36529
26.174499,693,3078,839,-609,530,190,8388.647,4101.074,-13017.754,3432.974
26.194488,750,3186,905,-542,444,320,8288.683,4100.567,-13062.127,3507.046
26.214477,799,3166,1000,-475,406,427,8191.324,4082.622,-13106.561,3589.971
26.234497,795,3176,1037,-455,398,514,8083.812,4061.955,-13157.500,3669.893
26.254486,821,3079,1123,-564,381,503,7958.373,4056.319,-13217.636,3733.646,265,-61,51
26.274475,838,2853,1106,-727,359,391,7816.101,4072.498,-13284.903,3777.581
26.294464,885,2560,1101,-856,355,268,7666.116,4104.836,-13352.296,3812.166
26.314483,883,2343,1088,-892,369,203,7516.856,4141.743,-13414.990,3849.196
26.334472,854,2252,990,-842,406,196,7381.696,4178.121,-13465.287,3895.554
26.354492,833,2199,989,-695,438,178,7275.171,4213.369,-13496.133,3950.851,269,-47,72
26.374481,768,2225,959,-480,458,130,7198.400,4249.006,-13508.669,4010.021
26.394470,764,2306,927,-309,452,68,7140.281,4285.852,-13510.576,4067.878
26.414489,755,2131,899,-243,435,35,7082.765,4321.015,-13512.011,4126.046
26.434539,739,1952,838,-272,437,69,7017.125,4351.142,-13517.417,4188.363
26.454498,734,1882,817,-287,463,123,6949.708,4379.058,-13521.142,4259.055,281,-45,95
26.474487,779,1905,855,-260,507,136,6886.415,4410.915,-13518.996,4335.125
26.494506,771,1919,856,-230,534,90,6825.102,4456.297,-13512.779,4404.501
26.514465,718,1809,887,-271,524,-21,6758.472,4524.507,-13506.582,4456.407
26.534546,660,1652,854,-381,502,-175,6683.651,4620.215,-13500.736,4488.649
26.554474,653,1464,804,-474,499,-339,6608.520,4739.530,-13489.523,4509.158
26.574493,641,1301,732,-487,510,-469,6542.545,4868.845,-13469.986,4525.964,293,-64,115
26.594482,599,1305,756,-414,506,-527,6492.820,4995.477,-13441.116,4545.361
26.614502,567,1390,857,-295,503,-531,6454.787,5116.100,-13405.847,4569.457
26.634491,529,1369,862,-242,501,-522,6415.855,5238.652,-13369.691,4591.310
26.654480,514,1281,845,-283,497,-551,6370.103,5368.963,-13335.404,4604.177,293,-64,115,36515
26.674499,448,1127,779,-348,478,-596,6321.974,5505.290,-13301.824,4606.663,303,-66,118
26.694488,411,1020,643,-367,443,-638,6279.500,5641.752,-13265.764,4603.634
26.714508,354,933,586,-322,411,-652,6252.400,5770.450,-13223.227,4603.378
26.734497,349,1008,571,-188,389,-632,6244.435,5884.116,-13173.060,4614.122
26.754486,313,1085,634,-40,388,-570,6248.691,5982.714,-13119.668,4633.654
26.774505,307,1175,674,33,371,-516,6253.506,6073.291,-13069.409,4651.321,287,-55,133
26.794525,283,1160,712,0,336,-480,6249.159,6159.981,-13027.045,4661.994
26.814514,276,1157,733,-85,300,-444,6230.347,6245.207,-12994.829,4663.690
26.834564,263,1121,774,-197,276,-420,6195.685,6333.382,-12971.824,4654.994
26.854492,278,986,777,-315,259,-414,6147.239,6425.295,-12955.660,4638.246
26.874481,267,837,829,-394,252,-413,6095.738,6518.217,-12940.665,4618.380,279,-64,143
26.894500,259,837,814,-378,246,-420,6052.818,6607.675,-12921.579,4601.114
26.914489,282,839,857,-292,235,-421,6024.361,6689.513,-12896.172,4591.477
26.934509,289,931,893,-181,234,-398,6006.623,6761.407,-12866.690,4592.119
26.954498,295,1017,923,-95,246,-349,5993.024,6824.697,-12835.757,4602.819
26.974578,281,1032,939,-54,270,-301,5978.908,6883.864,-12804.541,4619.981,260,-66,145
26.994506,304,1123,979,-47,288,-280,5962.059,6942.672,-12774.012,4638.232
27.014495,293,1141,998,-69,295,-276,5939.921,7003.960,-12745.375,4653.249
27.034484,335,1018,1004,-114,289,-287,5915.733,7069.200,-12717.988,4660.334
27.054504,296,854,958,-135,253,-324,5900.937,7135.331,-12687.003,4662.766
27.074524,317,932,873,-53,219,-356,5908.250,7191.477,-12647.739,4673.902,243,-76,154
27.094513,293,1119,983,136,211,-323,5938.157,7227.459,-12600.505,4707.954
27.114502,281,1440,982,331,234,-226,5980.865,7245.283,-12549.540,4762.310
27.134491,300,1546,1028,439,262,-139,6024.685,7256.273,-12497.825,4825.916
27.154510,307,1375,927,424,280,-117,6058.277,7273.776,-12450.121,4880.511,243,-76,154,36529
27.174530,352,1320,843,314,258,-168,6087.091,7301.259,-12403.441,4922.299,249,-70,167
27.194519,422,1445,870,289,238,-223,6127.708,7325.138,-12351.087,4967.859
27.214508,451,1743,964,414,220,-204,6188.287,7332.311,-12294.545,5022.142
27.234497,500,2262,1093,556,161,-155,6263.007,7324.250,-12238.650,5077.498
27.254516,440,2314,1191,593,99,-112,6332.245,7312.582,-12191.842,5120.863
27.274536,342,2110,1069,455,33,-110,6386.686,7315.615,-12157.339,5130.942,230,-70,158
27.294525,318,1949,903,250,-66,-234,6441.538,7338.190,-12121.965,5113.798
27.314514,354,1867,769,232,-119,-371,6522.388,7357.234,-12074.467,5096.297
27.334503,345,2055,677,455,-189,-384,6644.688,7343.826,-12016.262,5095.214
27.354522,293,2316,701,781,-293,-274,6807.386,7288.985,-11952.251,5109.727
27.374511,226,2566,709,1028,-424,-152,6992.604,7204.624,-11890.855,5122.488,235,-60,153
27.394500,169,2775,740,1095,-563,-84,7180.667,7105.000,-11839.392,5120.667
27.414550,102,2959,760,1025,-678,-38,7353.399,6996.809,-11804.664,5104.656
27.434509,63,2957,742,878,-714,53,7499.556,6881.360,-11789.184,5084.693
27.454528,-8,3166,687,721,-699,178,7618.809,6762.047,-11787.888,5070.464
27.474517,26,3307,721,614,-620,282,7712.963,6643.977,-11793.048,5072.199,221,-65,130
27.494537,37,3309,790,532,-484,382,7777.615,6531.445,-11805.293,5091.110
27.514526,128,3176,743,398,-348,464,7808.136,6431.326,-11828.312,5118.350
27.534515,311,2767,727,211,-225,509,7800.769,6345.531,-11865.625,5150.205
27.554535,460,2637,742,-7,-120,567,7756.399,6263.997,-11921.018,5188.967
27.574524,626,2460,720,-176,-37,697,7681.742,6172.135,-11993.664,5242.429,222,-61,99
27.594543,744,2462,738,-259,21,888,7585.886,6058.490,-12080.650,5314.354
27.614532,810,2388,799,-293,43,1093,7476.046,5926.480,-12178.544,5394.819
27.634521,854,2146,848,-330,22,1189,7359.721,5796.326,-12279.236,5467.440
27.654510,874,1913,856,-397,-1,1109,7242.126,5693.993,-12375.539,5514.664,222,-61,99,36531
27.674530,911,1896,778,-504,-28,859,7134.796,5632.407,-12458.592,5530.785,220,-59,72
27.694519,982,1749,805,-516,-43,556,7050.368,5596.900,-12522.721,5530.271
27.714538,856,1765,806,-430,-71,364,6988.101,5571.400,-12573.561,5519.687
27.734527,764,1761,777,-336,-109,238,6947.097,5559.306,-12611.843,5496.253
27.754547,683,1837,818,-280,-148,66,6922.922,5569.212,-12637.432,5457.817
27.774536,596,1824,806,-265,-155,-119,6906.950,5601.844,-12653.837,5406.406,255,-49,83
27.794525,494,1894,788,-285,-153,-269,6897.457,5652.990,-12662.437,5344.801
27.814544,414,1759,755,-283,-149,-390,6895.634,5720.407,-12661.555,5277.084
27.834533,398,1810,755,-267,-124,-501,6898.899,5799.982,-12651.932,5208.592
27.854522,333,1613,689,-247,-87,-563,6903.306,5886.306,-12637.797,5139.775
27.874542,335,1520,642,-258,-81,-602,6908.879,5978.864,-12621.562,5064.796,288,-57,97
27.894531,315,1577,663,-261,-99,-654,6921.095,6072.559,-12601.260,4986.597
27.914520,299,1702,664,-214,-120,-672,6943.682,6158.025,-12577.117,4910.759
27.934539,219,1943,725,-130,-146,-635,6973.713,6228.168,-12552.261,4842.873
27.954528,114,1792,813,-66,-149,-543,6999.470,6288.383,-12531.089,4782.352
27.974517,28,1785,742,-109,-128,-485,7008.246,6358.261,-12515.687,4716.993,285,-51,98
27.994537,19,1688,710,-237,-88,-537,7005.328,6446.587,-12496.693,4651.341
28.014526,43,1678,670,-272,7,-600,7002.353,6543.244,-12467.737,4598.255
28.034576,-1,1769,656,-183,87,-605,7011.470,6632.049,-12426.346,4569.086
28.054535,-63,1832,712,-20,162,-534,7027.556,6710.475,-12376.244,4565.849
28.074524,-78,1977,772,77,258,-463,7038.316,6788.118,-12322.122,4580.860,263,-62,123
28.094543,7,2113,806,70,356,-429,7032.827,6870.899,-12270.224,4605.121
28.114532,112,2266,845,-20,432,-387,7004.839,6952.414,-12229.319,4634.150
28.134552,120,2287,925,-146,464,-288,6952.415,7025.990,-12207.440,4659.745
28.154541,125,1959,882,-303,438,-183,6878.668,7096.367,-12205.574,4667.429,263,-62,123,36525
28.174530,169,1778,805,-483,351,-171,6798.317,7168.864,-12213.332,4654.053,234,-71,122
28.194610,170,1673,822,-525,283,-203,6726.384,7233.237,-12220.814,4639.307
28.214569,254,1619,882,-436,248,-145,6666.317,7275.828,-12229.205,4637.294
28.234558,273,1593,921,-313,217,-18,6613.901,7294.184,-12241.776,4650.325
28.254547,284,1517,925,-227,208,103,6564.223,7300.174,-12256.557,4672.329
28.274566,338,1484,909,-192,210,150,6516.218,7304.064,-12269.523,4699.340,209,-62,128
28.294555,368,1496,885,-162,226,141,6471.882,7310.693,-12277.700,4728.849
28.314544,459,1414,922,-136,237,110,6431.115,7321.198,-12282.731,4755.077
28.334564,444,1332,906,-142,213,67,6392.747,7336.140,-12287.074,4772.533
28.354553,456,1236,877,-160,175,16,6359.384,7357.908,-12288.434,4780.087
28.374542,400,1106,861,-154,147,-60,6336.324,7389.836,-12281.101,4780.304,220,-73,145
28.394531,383,1017,823,-120,131,-174,6325.972,7434.757,-12261.347,4775.067
28.414550,324,1068,843,-63,131,-298,6328.695,7493.249,-12227.389,4767.098
28.434570,262,1101,845,-6,144,-413,6340.677,7565.606,-12180.436,4757.080
28.454559,201,1118,854,16,170,-524,6354.909,7654.150,-12122.853,4743.520
28.474548,183,1089,884,2,209,-630,6366.079,7759.459,-12055.944,4727.946,224,-66,150
28.494537,157,1107,875,-25,268,-712,6373.125,7877.633,-11981.701,4711.736
28.514557,134,1078,851,-45,312,-772,6377.806,8003.153,-11901.843,4696.243
28.534546,137,1089,864,-45,341,-799,6381.393,8128.605,-11819.138,4684.765
28.554565,157,1210,894,-25,362,-775,6382.180,8245.942,-11738.561,4681.219
28.574554,154,1312,984,-11,383,-698,6374.729,8354.271,-11664.291,4684.948,214,-67,160
28.594574,164,1413,1037,-45,403,-615,6352.914,8456.298,-11600.618,4689.627
28.614563,198,1574,1122,-132,411,-530,6313.702,8551.394,-11551.399,4691.634
28.634552,159,1576,1170,-235,411,-436,6256.313,8641.457,-11516.368,4689.611
28.654571,204,1550,1207,-343,416,-360,6186.579,8729.624,-11489.571,4684.557,214,-67,160,36525
28.674560,261,1543,1186,-385,427,-333,6116.450,8813.009,-11463.280,4684.929,207,-62,162
28.694549,359,1635,1236,-322,437,-290,6056.635,8881.920,-11434.397,4703.048
28.714569,331,1748,1268,-168,443,-210,6014.347,8934.202,-11401.240,4738.651
28.734558,278,1925,1328,-21,418,-172,5988.540,8979.758,-11361.752,4779.891
28.754547,269,2093,1356,59,388,-203,5972.430,9026.346,-11316.481,4819.527
28.774566,270,2169,1419,78,365,-242,5958.868,9073.966,-11270.412,4854.717,172,-80,161
28.794555,270,2165,1408,64,342,-248,5944.433,9119.564,-11229.226,4882.333
28.814575,260,2099,1390,24,296,-232,5931.992,9159.480,-11193.711,4904.248
28.834594,235,2126,1366,33,243,-198,5927.894,9188.087,-11163.170,4925.261
28.854583,192,2124,1236,88,174,-150,5939.405,9203.521,-11134.330,4947.807
28.874572,116,2180,1170,185,103,-135,5972.533,9211.312,-11099.406,4971.839,187,-73,175
28.894561,106,2272,1110,304,37,-174,6028.703,9213.474,-11055.562,4997.661
28.914581,121,2361,1114,416,-29,-209,6102.374,9206.993,-11009.564,5021.676
28.934570,58,2463,1083,468,-114,-200,6180.291,9190.735,-10973.284,5035.560
28.954559,19,2489,1077,403,-199,-145,6250.666,9169.046,-10951.296,5036.102
28.974578,-35,2432,1014,299,-248,-98,6310.468,9146.845,-10940.064,5026.296,187,-71,170
28.994567,-51,2434,1009,215,-259,-69,6360.780,9125.038,-10934.463,5014.688
29.014587,-58,2499,1039,171,-231,-35,6399.116,9102.635,-10934.980,5005.496
29.034576,-72,2592,1079,111,-194,19,6422.066,9080.475,-10944.486,4995.567
29.054596,-38,2570,1055,16,-169,67,6428.901,9061.293,-10963.969,4978.857
29.074585,-28,2489,1059,-96,-164,91,6425.225,9044.638,-10990.565,4955.190,165,-85,161
29.094574,-4,2377,1074,-154,-165,103,6418.103,9026.203,-11021.457,4929.353
29.114593,-13,2320,1052,-165,-174,132,6409.000,9001.713,-11058.267,4903.472
29.134582,20,2215,1012,-175,-200,187,6398.225,8968.930,-11101.269,4880.395
29.154571,28,2183,981,-157,-205,256,6385.336,8922.942,-11150.265,4869.868,165,-85,161,36529
29.174591,23,2279,1055,-115,-178,372,6364.455,8865.064,-11206.943,4872.804,163,-78,157
29.194580,49,2302,1076,-122,-133,477,6330.972,8806.611,-11268.263,4880.989
29.214569,104,2048,1061,-185,-85,486,6285.216,8760.496,-11328.911,4882.721
29.234588,215,1719,916,-284,-50,420,6230.048,8727.219,-11388.488,4874.414
29.254577,301,1566,857,-336,-42,377,6180.810,8688.161,-11446.523,4870.932
29.274566,272,1661,827,-219,-63,425,6149.644,8627.991,-11501.994,4886.635,157,-81,153
29.294586,254,1894,954,-39,-79,519,6129.957,8555.526,-11553.944,4916.137
29.314605,220,2058,1043,17,-57,536,6100.809,8493.409,-11603.931,4942.301
29.334594,204,1902,1027,-111,-12,467,6050.181,8460.252,-11652.930,4946.118
29.354583,237,1577,940,-340,12,308,5981.915,8460.468,-11697.993,4922.353
29.374572,299,1309,877,-499,29,137,5911.462,8477.824,-11736.151,4886.645,181,-67,165
29.394622,333,1162,790,-490,21,66,5853.729,8487.917,-11770.236,4856.551
29.414642,281,1221,859,-365,-14,108,5815.354,8482.355,-11800.951,4837.799
29.434570,268,1309,876,-215,-43,139,5791.815,8471.846,-11825.310,4824.952
29.454589,249,1314,891,-154,-57,110,5775.032,8465.412,-11844.834,4808.443
29.474609,229,1326,851,-152,-80,49,5764.094,8466.601,-11859.780,4782.564,190,-74,158
29.494598,164,1387,877,-162,-117,-31,5759.474,8476.166,-11869.630,4746.617
29.514587,122,1405,914,-171,-145,-109,5758.574,8495.755,-11873.771,4702.124
29.534607,87,1425,964,-192,-152,-189,5756.027,8526.282,-11873.551,4650.256
29.554596,76,1556,1046,-241,-140,-244,5744.132,8563.371,-11873.777,4595.918
29.574585,49,1655,1126,-299,-102,-234,5716.029,8600.155,-11880.197,4545.403,208,-76,175
29.594604,60,1586,1187,-380,-38,-163,5663.329,8638.062,-11896.135,4497.553
29.614624,175,1412,1176,-510,39,-102,5587.350,8680.980,-11918.569,4450.309
29.634582,235,1166,1071,-595,96,-80,5509.128,8723.312,-11941.110,4404.391
29.654602,286,902,929,-543,72,-83,5455.666,8753.179,-11958.339,4364.759,208,-76,175,36546
29.674591,330,751,865,-327,-13,-59,5444.799,8755.697,-11968.767,4344.650,201,-80,182
29.694580,276,811,854,10,-104,22,5481.348,8725.446,-11971.709,4351.439
29.714599,224,1081,943,343,-183,115,5554.210,8668.498,-11969.582,4378.634
29.734588,118,1192,988,536,-244,190,5637.422,8600.535,-11969.075,4407.599
29.754608,89,1163,1080,518,-281,207,5709.748,8541.113,-11972.244,4421.421
29.774597,104,1053,1014,373,-280,146,5765.938,8498.735,-11977.046,4417.154,195,-79,185
29.794616,211,1040,1038,243,-269,68,5814.844,8465.340,-11980.683,4407.297
29.814605,239,1065,1080,224,-265,50,5864.933,8428.565,-11986.796,4394.770
29.834625,210,1154,1143,224,-311,69,5919.748,8387.455,-11996.949,4372.166
29.854614,138,1227,1175,206,-394,51,5980.672,8350.029,-12007.128,4332.768
29.874603,115,1348,1211,171,-467,-23,6047.040,8319.222,-12015.563,4276.155,201,-76,210
29.894592,106,1527,1282,142,-533,-92,6115.210,8289.538,-12025.525,4208.318
29.914611,69,1737,1388,99,-583,-91,6177.966,8255.815,-12043.996,4129.388
29.934600,20,1799,1414,12,-633,-55,6229.115,8217.995,-12074.422,4038.123
29.954620,-105,1804,1455,-101,-675,-14,6268.133,8179.123,-12114.256,3936.075
29.974609,-212,1757,1441,-189,-687,6,6296.977,8142.661,-12158.049,3829.157,202,-72,188
29.994629,-257,1755,1391,-245,-667,5,6320.157,8109.884,-12200.438,3724.262
30.014618,-198,1808,1381,-241,-615,12,6340.045,8071.156,-12241.294,3639.561
30.034607,-224,1971,1360,-164,-517,123,6354.332,8015.167,-12285.279,3589.834
30.054596,-218,2271,1484,-78,-381,308,6358.263,7943.627,-12333.646,3576.015
30.074615,-168,2371,1582,-42,-238,462,6341.218,7870.775,-12387.352,3581.732,178,-74,185
30.094635,-97,2288,1510,-143,-115,508,6296.073,7810.592,-12447.171,3585.734
30.114624,-13,2184,1444,-309,-43,481,6236.217,7760.497,-12507.969,3587.535
30.134613,52,2238,1522,-327,-3,453,6185.506,7711.409,-12560.298,3598.336
30.154602,96,2347,1560,-211,25,438,6146.340,7661.904,-12602.231,3624.490,178,-74,185,36515
30.174621,123,2352,1587,-107,72,424,6111.998,7620.068,-12635.145,3656.035,176,-81,181
30.194610,122,2285,1507,-99,103,342,6078.612,7596.884,-12657.749,3681.663
30.214630,143,2267,1455,-106,133,207,6050.733,7589.514,-12667.114,3710.465
30.234619,142,2391,1474,-39,191,126,6030.412,7588.934,-12665.468,3750.141
30.254608,105,2366,1461,25,246,92,6010.352,7597.060,-12656.935,3794.441
30.274627,112,2182,1340,5,288,24,5984.495,7627.446,-12640.286,3829.684,191,-76,189
30.294616,136,2068,1232,-70,320,-138,5956.724,7681.883,-12611.705,3858.294
30.314605,190,1944,1168,-66,367,-265,5935.211,7744.433,-12573.582,3890.691
30.334625,174,1847,1103,0,379,-287,5922.180,7799.679,-12533.594,3929.024
30.354644,121,1780,1086,64,363,-237,5913.125,7846.359,-12495.398,3971.153
30.374633,67,1719,1055,79,356,-207,5900.884,7895.562,-12456.351,4014.276,197,-81,185
30.394622,48,1730,1075,55,393,-231,5883.424,7956.307,-12411.750,4057.879
30.414642,55,1721,1095,29,448,-303,5858.758,8033.481,-12360.029,4099.177
30.434631,62,1704,1125,-33,494,-396,5822.067,8126.944,-12304.588,4133.866
30.454620,132,1625,1091,-129,542,-451,5769.053,8229.200,-12251.341,4163.936
30.474609,143,1431,1017,-222,573,-452,5708.503,8333.285,-12199.354,4192.915,210,-83,189
30.494629,157,1194,892,-219,581,-454,5658.275,8434.571,-12141.869,4225.209
30.514618,170,1212,882,-111,558,-478,5630.477,8530.170,-12073.568,4265.945
30.534637,170,1278,893,58,533,-495,5624.075,8616.051,-11996.583,4318.664
30.554626,169,1375,916,190,514,-475,5627.080,8692.395,-11918.481,4377.610
30.574615,190,1554,958,232,499,-433,5625.501,8762.053,-11844.885,4440.079,211,-79,195
30.594635,242,1718,1066,194,523,-366,5605.686,8827.272,-11781.611,4503.845
