;Title, http://www.gcdataconcepts.com, HAM-IMU, MPU-9250,,,,,,,,,,,,
;Version,1191, Build date, Nov 15 2016,  SN:CCDC3016FE411C6,,,,,,,,,,,
;Start_time, 2007-01-01, 08:16:31.960,2007-01-01 08:16:31.960,,,,,,,,,,,,
;Temperature,-999, deg C,  Vbat,4074, mv,,,,,,,,,,
;MPU SR,200,Hz,  Accel sens,2048,counts/g, Gyro sens,16,counts/dps,  Mag SR,10,Hz,  Mag sens,1666,counts/mT,
;Deadband,0, counts,,,,,,,,,,,,,
;DeadbandTimeout,5,sec,,,,,,,,,,,,,
;Time, Ax, Ay, Az, Gx, Gy, Gz, Qw, Qx, Qy, Qz, Mx, My, Mz, T,Date Time
0.001586,753,1450,1072,6,-159,337,-8314.115,5301.245,13082.918,212.096,,,,,2007-01-01 08:16:31.962
0.006683,766,1934,820,50,-159,328,-8298.865,5355.931,13070.374,208.82,,,,,2007-01-01 08:16:31.967
0.026641,404,1947,1010,-112,-169,240,-8265.893,5385.723,13079.046,207.372,,,,,2007-01-01 08:16:31.987
0.046722,565,1972,897,-253,-160,77,-8221.335,5403.439,13099.706,213.601,-286,-312,450,,2007-01-01 08:16:32.007
0.06665,420,1899,869,-243,-142,-1,-8187.606,5407.746,13118.931,220.169,,,,,2007-01-01 08:16:32.027
0.086669,587,1937,793,-178,-64,-49,-8171.135,5399.231,13132.678,221.514,,,,,2007-01-01 08:16:32.047
0.106689,639,1941,814,-103,20,-51,-8170.014,5389.29,13137.494,219.329,,,,,2007-01-01 08:16:32.067
0.126678,586,1889,883,13,38,-16,-8178.309,5376.019,13137.921,210.148,,,,,2007-01-01 08:16:32.087
0.146698,506,1723,938,14,103,-38,-8189.549,5360.031,13137.646,197.594,-287,-339,435,,2007-01-01 08:16:32.107
0.166717,685,1753,1000,9,151,-54,-8188.441,5355.169,13140.493,185.654,,,,,2007-01-01 08:16:32.127
0.186737,859,1728,1019,-42,36,39,-8188.747,5359.523,13138.633,178.017,,,,,2007-01-01 08:16:32.147
0.206787,1027,1589,1022,-16,6,59,-8197.883,5369.802,13128.924,163.459,,,,,2007-01-01 08:16:32.167
0.226745,784,1514,960,59,70,122,-8204.944,5387.439,13117.567,138.832,-287,-339,435,32990,2007-01-01 08:16:32.187
0.246734,828,1553,1170,19,66,189,-8211.883,5413.938,13102.575,110.502,-288,-352,418,,2007-01-01 08:16:32.207
0.266754,881,1610,1201,28,45,237,-8222.279,5436.716,13086.763,91.144,,,,,2007-01-01 08:16:32.227
0.286773,624,1639,1106,88,17,148,-8223.717,5454.661,13078.434,84.512,,,,,2007-01-01 08:16:32.247
0.306793,340,1731,1056,-2,-34,79,-8207.095,5466.828,13083.849,75.527,,,,,2007-01-01 08:16:32.267
0.326782,455,1684,1017,-149,3,50,-8188.978,5471.672,13093.218,67.171,,,,,2007-01-01 08:16:32.287
0.346801,583,1483,903,-101,-18,51,-8190.411,5473.772,13091.474,60.927,-297,-365,435,,2007-01-01 08:16:32.307
0.366821,430,1438,950,55,51,31,-8213.227,5469.468,13079.032,46.769,,,,,2007-01-01 08:16:32.327
0.38684,563,1619,551,113,156,28,-8239.858,5461.14,13065.806,28.602,,,,,2007-01-01 08:16:32.347
0.40689,660,1499,601,114,165,44,-8268.097,5457.446,13049.526,12.628,,,,,2007-01-01 08:16:32.367
0.426849,855,1418,554,129,107,68,-8301.234,5465.064,13025.284,2.748,,,,,2007-01-01 08:16:32.387
0.446868,713,1216,769,200,90,88,-8333.188,5471.797,13002.029,-8.804,-285,-377,451,,2007-01-01 08:16:32.407
0.466888,874,1430,636,169,99,105,-8341.575,5473.478,12995.92,-25.305,,,,,2007-01-01 08:16:32.427
0.486877,683,1611,966,-102,46,47,-8305.405,5486.941,13013.369,-37.144,,,,,2007-01-01 08:16:32.447
0.506927,702,1394,1176,-262,-87,47,-8279.337,5498.339,13025.179,-31.145,,,,,2007-01-01 08:16:32.467
0.526916,962,1357,1197,-76,-134,11,-8276.183,5513.983,13020.602,-12.369,,,,,2007-01-01 08:16:32.487
0.546905,815,1354,1228,113,-107,17,-8289.467,5531.737,13004.616,3.075,-310,-364,450,,2007-01-01 08:16:32.507
0.566925,787,1559,1192,152,-96,67,-8286.485,5552.093,12997.836,11.609,,,,,2007-01-01 08:16:32.527
0.586944,689,1448,948,-50,-126,79,-8260.759,5573.553,13005.019,16.557,,,,,2007-01-01 08:16:32.547
0.606933,644,1400,1108,-159,-127,53,-8227.297,5592.631,13018.033,17.596,,,,,2007-01-01 08:16:32.567
0.626953,750,1454,1000,-166,-119,60,-8198.213,5612.89,13027.657,18.173,,,,,2007-01-01 08:16:32.587
0.646972,604,1649,768,-190,-117,85,-8159.141,5627.696,13045.789,16.109,-311,-344,472,,2007-01-01 08:16:32.607
0.666992,629,1688,1159,-264,-112,15,-8118.171,5630.647,13070.044,21.956,,,,,2007-01-01 08:16:32.627
0.687011,743,1670,1165,-193,-125,-85,-8095.97,5625.17,13086.118,40.998,,,,,2007-01-01 08:16:32.647
0.707,593,1480,1181,-87,-118,-137,-8084.298,5611.65,13099.022,67.59,,,,,2007-01-01 08:16:32.667
0.72702,512,1410,956,-32,-124,-138,-8075.31,5592.305,13112.667,94.188,-311,-344,472,33011,2007-01-01 08:16:32.687
0.747039,515,1474,1057,-27,-91,-184,-8057.627,5573.844,13131.214,116.449,-312,-374,502,,2007-01-01 08:16:32.707
0.767059,1010,1708,962,-104,-85,-203,-8050.083,5547.099,13146.922,140.498,,,,,2007-01-01 08:16:32.727
0.787048,873,1570,1138,34,-27,-225,-8057.116,5519.677,13153.891,163.211,,,,,2007-01-01 08:16:32.747
0.807067,1138,1680,1089,49,-31,-170,-8053.563,5522.877,13154.476,182.038,,,,,2007-01-01 08:16:32.767
0.827087,714,1490,1238,2,-151,3,-8039.747,5540.427,13155.412,191.583,,,,,2007-01-01 08:16:32.787
0.847076,412,1472,969,-78,-125,37,-8024.104,5547.549,13161.888,196.395,-327,-394,451,,2007-01-01 08:16:32.807
0.867095,675,1629,1121,-64,-7,-35,-8016.086,5550.792,13165.289,204.153,,,,,2007-01-01 08:16:32.827
0.887115,842,1781,1108,-32,-79,16,-8003.68,5558.686,13169.329,215.225,,,,,2007-01-01 08:16:32.847
0.907104,969,1997,1248,-65,-112,4,-7988.096,5570.198,13173.718,227.622,,,,,2007-01-01 08:16:32.867
0.927154,745,2095,1307,-82,-141,-21,-7967.659,5579.555,13181.776,247.376,,,,,2007-01-01 08:16:32.887
0.947143,643,1849,1033,-74,-145,-45,-7959.046,5578.994,13186.748,271.141,-326,-390,423,,2007-01-01 08:16:32.907
0.967163,446,1877,1015,8,-100,-80,-7939.268,5574.572,13200.432,276.026,,,,,2007-01-01 08:16:32.927
0.987152,590,1969,864,-208,-14,-71,-7924.249,5556.221,13217.314,269.691,,,,,2007-01-01 08:16:32.947
1.007232,374,1743,876,-65,127,-132,-7942.002,5513.653,13224.51,268.325,,,,,2007-01-01 08:16:32.967
1.027191,332,1687,755,86,163,-208,-7971.666,5468.372,13225.304,276.048,,,,,2007-01-01 08:16:32.987
1.04721,528,1731,882,183,147,-225,-8005.533,5429.787,13220.524,286.406,-330,-387,394,,2007-01-01 08:16:33.007
1.067199,551,1691,822,193,96,-164,-8036.298,5400.581,13213.623,295.338,,,,,2007-01-01 08:16:33.027
1.087219,305,1656,1068,138,97,-135,-8060.757,5376.655,13208.293,303.638,,,,,2007-01-01 08:16:33.047
1.107238,697,1719,995,162,86,-122,-8093.464,5346.734,13200.085,318.542,,,,,2007-01-01 08:16:33.067
1.127227,827,1720,1004,255,93,-164,-8151.81,5311.157,13178.146,333.941,,,,,2007-01-01 08:16:33.087
1.147277,969,1823,1113,384,161,-171,-8201.589,5289.999,13155.648,337.937,-334,-372,378,,2007-01-01 08:16:33.107
1.167266,606,1330,1104,263,110,4,-8240.377,5290.003,13131.507,333.164,,,,,2007-01-01 08:16:33.127
1.187286,579,1197,1130,217,69,91,-8268.673,5306.535,13107.342,320.55,,,,,2007-01-01 08:16:33.147
1.207305,835,1367,1304,194,66,166,-8302.2,5317.382,13082.063,306.568,,,,,2007-01-01 08:16:33.167
1.227294,722,1182,954,184,132,127,-8323.796,5335.737,13061.359,284.014,-334,-372,378,33011,2007-01-01 08:16:33.187
1.247314,698,1198,893,78,87,205,-8339.311,5356.363,13043.531,258.829,-311,-391,428,,2007-01-01 08:16:33.207
1.267333,534,1237,867,33,68,183,-8330.831,5367.097,13044.837,243.278,,,,,2007-01-01 08:16:33.227
1.287323,82,1262,761,-122,-7,37,-8299.906,5373.153,13062.044,243.351,,,,,2007-01-01 08:16:33.247
1.307342,147,1404,1118,-220,-117,-67,-8253.464,5362.013,13095.648,261.877,,,,,2007-01-01 08:16:33.267
1.327362,-116,1506,853,-302,-105,-225,-8203.444,5328.139,13140.274,288.189,,,,,2007-01-01 08:16:33.287
1.347381,47,1556,1018,-276,-65,-357,-8166.182,5279.435,13182.167,327.011,-317,-366,473,,2007-01-01 08:16:33.307
1.36737,303,1527,1168,-182,-119,-415,-8136.91,5233.979,13217.068,375.097,,,,,2007-01-01 08:16:33.327
1.38739,425,1424,1090,-84,-99,-381,-8134.179,5187.674,13235.974,409.371,,,,,2007-01-01 08:16:33.347
1.407379,692,1480,1036,56,13,-301,-8135.118,5155.413,13247.044,439.102,,,,,2007-01-01 08:16:33.367
1.427398,895,1629,1064,29,-29,-240,-8118.939,5135.456,13264.27,452.212,,,,,2007-01-01 08:16:33.387
1.447418,926,1764,1300,-184,-54,-103,-8086.502,5132.368,13285.541,443.974,-295,-362,484,,2007-01-01 08:16:33.407
1.467437,1171,1815,845,-221,-7,-30,-8064.261,5144.96,13294.929,421.151,,,,,2007-01-01 08:16:33.427
1.487426,1079,1779,511,-120,50,180,-8075.376,5179.506,13275.903,383.215,,,,,2007-01-01 08:16:33.447
1.507476,831,1540,773,88,101,350,-8104.384,5219.134,13244.024,332.942,,,,,2007-01-01 08:16:33.467
1.527465,569,1541,657,107,156,343,-8134.435,5246.059,13216.036,285.753,,,,,2007-01-01 08:16:33.487
1.547485,568,1733,804,132,186,301,-8163.491,5266.76,13190.617,248.38,-282,-375,460,,2007-01-01 08:16:33.507
1.567504,460,1923,1052,83,118,220,-8165.812,5282.217,13183.422,224.745,,,,,2007-01-01 08:16:33.528
1.587493,287,2100,1368,-78,28,100,-8136.752,5284.838,13200.311,225.746,,,,,2007-01-01 08:16:33.547
1.607513,444,2229,975,-205,-74,-73,-8100.891,5270.744,13227.717,240.321,,,,,2007-01-01 08:16:33.568
1.627532,647,2024,1112,-226,-107,-181,-8086.715,5245.446,13246.114,257.321,,,,,2007-01-01 08:16:33.588
1.647521,702,1588,1228,5,30,-199,-8107.099,5209.778,13247.719,257.934,-301,-384,440,,2007-01-01 08:16:33.608
1.667541,623,1639,987,137,176,-120,-8138.329,5181.871,13239.94,234.986,,,,,2007-01-01 08:16:33.628
1.687561,640,1540,801,134,287,-24,-8184.221,5167.887,13217.69,198.952,,,,,2007-01-01 08:16:33.648
1.70758,676,1323,972,250,235,145,-8230.206,5178.445,13185.317,173.949,,,,,2007-01-01 08:16:33.668
1.727569,893,1056,862,245,141,194,-8268.937,5203.585,13151.408,152.608,-301,-384,440,33021,2007-01-01 08:16:33.688
1.747589,788,1106,907,206,61,264,-8289.932,5231.948,13127.266,118.51,-298,-381,434,,2007-01-01 08:16:33.708
1.767608,880,1379,987,55,124,255,-8294.355,5262.674,13112.478,79.227,,,,,2007-01-01 08:16:33.728
1.787628,860,1609,1044,-40,75,284,-8285.407,5296.919,13104.468,55.154,,,,,2007-01-01 08:16:33.748
1.807617,658,1798,1081,-39,-79,210,-8286.008,5319.001,13095.106,62.757,,,,,2007-01-01 08:16:33.768
1.827636,398,1612,862,79,-120,36,-8292.594,5313.062,13093.219,85.427,,,,,2007-01-01 08:16:33.788
1.847625,424,1236,938,50,-6,-155,-8303.152,5283.917,13098.28,91.55,-297,-377,453,,2007-01-01 08:16:33.808
1.867645,874,1217,323,48,121,-122,-8303.264,5269.715,13104.007,79.641,,,,,2007-01-01 08:16:33.828
1.887664,229,902,961,-129,31,48,-8277.435,5290.901,13111.977,43.801,,,,,2007-01-01 08:16:33.848
1.907684,353,1067,956,-208,105,206,-8235.48,5334.568,13120.773,-2.377,,,,,2007-01-01 08:16:33.868
1.927703,612,1431,972,-291,13,317,-8194.219,5381.836,13127.238,-41.122,,,,,2007-01-01 08:16:33.888
1.947692,382,1535,1455,-255,-65,289,-8147.344,5421.419,13140.018,-66.077,-295,-359,470,,2007-01-01 08:16:33.908
1.967712,835,1920,1029,-315,-121,162,-8098.467,5442.305,13161.564,-69.401,,,,,2007-01-01 08:16:33.928
1.987731,656,1853,1263,-240,-89,15,-8087.578,5432.879,13172.174,-64.517,,,,,2007-01-01 08:16:33.948
2.007751,608,1477,944,1,79,-132,-8091.231,5415.837,13176.95,-64.084,,,,,2007-01-01 08:16:33.968
2.02774,1252,1491,902,-46,-9,-5,-8084.075,5429.294,13175.699,-83.007,,,,,2007-01-01 08:16:33.988
2.04776,821,1518,849,-113,-2,195,-8068.584,5468.956,13168.537,-116.322,-299,-382,476,,2007-01-01 08:16:34.008
2.067779,985,1571,1170,-107,-12,303,-8054.533,5512.494,13158.686,-146.049,,,,,2007-01-01 08:16:34.028
2.087768,653,1421,1331,-62,16,286,-8047.317,5548.178,13147.987,-155.831,,,,,2007-01-01 08:16:34.048
2.107788,581,1467,1317,15,-75,174,-8041.332,5570.57,13142.237,-150.904,,,,,2007-01-01 08:16:34.068
2.127807,575,1757,1265,-41,-101,82,-8018.824,5583.599,13150.511,-146.168,,,,,2007-01-01 08:16:34.088
2.147796,770,1888,1223,-77,-72,-19,-8000.539,5577.797,13164.283,-128.999,-318,-401,449,,2007-01-01 08:16:34.108
2.167816,765,1860,1133,-47,-98,-142,-7995.854,5558.85,13175.367,-103.132,,,,,2007-01-01 08:16:34.128
2.187835,778,1878,918,2,-55,-205,-7989.585,5535.544,13189.147,-78.185,,,,,2007-01-01 08:16:34.148
2.207824,653,1487,902,-47,-51,-197,-7982.361,5509.209,13204.656,-54.897,,,,,2007-01-01 08:16:34.168
2.227935,424,1433,723,-56,-73,-208,-7966.279,5481.484,13225.953,-36.497,-318,-401,449,33007,2007-01-01 08:16:34.188
2.247863,464,1568,976,-97,-32,-231,-7956.843,5448.051,13245.462,-23.642,-338,-411,436,,2007-01-01 08:16:34.208
2.267883,576,1665,850,-43,32,-221,-7965.35,5408.446,13256.584,-17.494,,,,,2007-01-01 08:16:34.228
2.287902,823,1681,937,59,137,-225,-7994.082,5370.865,13254.574,-12.774,,,,,2007-01-01 08:16:34.248
2.307891,1320,1783,1005,187,119,-139,-8032.091,5358.982,13236.394,-11.298,,,,,2007-01-01 08:16:34.268
2.327911,1246,1565,1020,236,61,49,-8073.863,5372.167,13205.57,-29.875,,,,,2007-01-01 08:16:34.288
2.34793,1005,1410,1130,225,136,180,-8100.679,5391.941,13180.968,-58.992,-349,-401,394,,2007-01-01 08:16:34.308
2.36795,873,1435,1159,98,105,183,-8099.148,5418.364,13170.954,-80.715,,,,,2007-01-01 08:16:34.328
2.387939,382,1493,1177,-47,-62,190,-8088.558,5453.245,13163.056,-82.027,,,,,2007-01-01 08:16:34.348
2.407958,1057,1731,1448,26,-155,127,-8088.077,5479.753,13152.45,-61.648,,,,,2007-01-01 08:16:34.368
2.427948,217,1626,1024,112,-152,20,-8099.654,5466.142,13151.096,-31.362,,,,,2007-01-01 08:16:34.388
2.447998,395,1421,1123,72,-61,-150,-8100.654,5442.152,13160.464,0.262,-343,-392,413,,2007-01-01 08:16:34.408
2.467987,524,1488,1181,54,-94,-228,-8097.25,5418.126,13172.431,30.899,,,,,2007-01-01 08:16:34.428
2.488006,569,1389,1144,5,-69,-193,-8093.056,5400.597,13182.135,52.467,,,,,2007-01-01 08:16:34.448
2.508026,493,1320,923,-21,-46,-156,-8092.035,5386.949,13188.27,68.678,,,,,2007-01-01 08:16:34.468
2.528015,751,1152,735,3,-17,-97,-8088.932,5382.068,13192.104,79.648,,,,,2007-01-01 08:16:34.488
2.548034,617,1094,937,-20,-45,-51,-8073.242,5387.619,13199.422,83.766,-346,-398,444,,2007-01-01 08:16:34.508
2.568054,731,1307,897,-86,-76,-1,-8057.677,5398.326,13204.532,87.588,,,,,2007-01-01 08:16:34.528
2.588073,715,1469,1127,-89,-78,20,-8047.758,5398.222,13210.561,96.501,,,,,2007-01-01 08:16:34.548
2.608062,865,1926,1220,5,-35,-86,-8046.604,5394.821,13212.526,112.524,,,,,2007-01-01 08:16:34.568
2.628082,816,1930,1437,-57,-84,-51,-8023.631,5400.387,13224.085,127.152,,,,,2007-01-01 08:16:34.588
2.648101,478,1568,999,-57,-145,-33,-8016.957,5402.514,13227.053,147.4,-328,-416,448,,2007-01-01 08:16:34.608
2.66809,511,1383,853,-7,-62,-80,-8012.788,5383.67,13237.271,146.297,,,,,2007-01-01 08:16:34.628
2.68811,658,1415,695,-33,150,-122,-8008.471,5358.447,13250.336,124.379,,,,,2007-01-01 08:16:34.648
2.708129,623,1548,943,-99,194,-53,-8015.044,5334.628,13256.256,88.92,,,,,2007-01-01 08:16:34.668
2.728118,730,1762,1055,-19,204,-10,-8023.833,5327.111,13254.128,59.219,-328,-416,448,33011,2007-01-01 08:16:34.688
2.748138,768,1820,1145,-22,151,82,-8027.703,5326.399,13252.155,35.638,-330,-408,428,,2007-01-01 08:16:34.708
2.768157,867,2038,1094,-36,95,61,-8025.254,5326.268,13253.727,17.801,,,,,2007-01-01 08:16:34.728
2.788177,615,2053,1043,-41,72,12,-8031.751,5313.628,13254.873,10.304,,,,,2007-01-01 08:16:34.748
2.808166,588,1781,928,57,97,-79,-8065.258,5275.969,13249.569,10.514,,,,,2007-01-01 08:16:34.768
2.828186,806,1883,916,224,225,-215,-8115.541,5231.392,13236.536,8.808,,,,,2007-01-01 08:16:34.788
2.848205,689,1538,945,264,215,-150,-8161.038,5194.204,13223.204,0.573,-326,-407,400,,2007-01-01 08:16:34.808
2.868225,683,1651,811,193,211,-100,-8194.63,5169.631,13212.047,-14.152,,,,,2007-01-01 08:16:34.828
2.888244,357,1251,880,157,185,-34,-8224.589,5158.709,13197.679,-23.872,,,,,2007-01-01 08:16:34.848
2.908233,428,1345,960,179,123,-4,-8247.707,5143.901,13189.024,-25.859,,,,,2007-01-01 08:16:34.868
2.928253,467,1371,1019,79,81,-52,-8251.949,5129.691,13191.897,-29.79,,,,,2007-01-01 08:16:34.888
2.948242,878,1635,985,-30,54,-38,-8243.647,5116.361,13202.221,-43.689,-330,-408,415,,2007-01-01 08:16:34.908
2.968261,762,1294,963,-97,56,-25,-8246.797,5110.612,13202.469,-46.961,,,,,2007-01-01 08:16:34.928
2.988281,1006,1351,720,54,26,-33,-8260.722,5116.162,13191.583,-54.085,,,,,2007-01-01 08:16:34.948
3.0083,698,1158,721,113,45,88,-8279.747,5123.283,13176.824,-67.189,,,,,2007-01-01 08:16:34.968
3.02832,622,1070,873,90,63,100,-8295.282,5131.67,13163.659,-88.181,,,,,2007-01-01 08:16:34.988
3.048309,470,1205,837,55,87,128,-8297.686,5143.409,13157.409,-108.467,-307,-385,461,,2007-01-01 08:16:35.008
3.068328,374,1261,925,-32,35,112,-8286.923,5157.073,13158.763,-117.842,,,,,2007-01-01 08:16:35.028
3.088348,323,1220,848,-73,-36,59,-8269.16,5169.883,13164.947,-113.558,,,,,2007-01-01 08:16:35.048
3.108337,638,1495,1001,-113,-113,43,-8244.361,5183.013,13175.47,-96.452,,,,,2007-01-01 08:16:35.068
3.128356,711,1618,1100,-95,-193,-30,-8227.412,5189.229,13183.804,-65.786,,,,,2007-01-01 08:16:35.088
3.148376,603,1508,1262,7,-213,-113,-8233.631,5182.215,13182.812,-29.307,-288,-378,473,,2007-01-01 08:16:35.108
3.168365,827,1355,1012,191,-111,-142,-8266.957,5168.321,13167.43,10.027,,,,,2007-01-01 08:16:35.128
3.188385,901,1597,1099,279,-44,-159,-8269.904,5167.634,13165.785,42.154,,,,,2007-01-01 08:16:35.148
3.208404,837,1583,1166,-66,-164,-39,-8217.687,5184.087,13191.97,47.08,,,,,2007-01-01 08:16:35.168
3.228424,496,1597,813,-458,-201,68,-8154.092,5203.705,13223.692,40.659,-288,-378,473,33007,2007-01-01 08:16:35.188
3.248443,702,1738,730,-379,-139,34,-8100.873,5222.828,13248.855,34.53,-292,-365,485,,2007-01-01 08:16:35.208
3.268432,738,1601,710,-370,-119,93,-8071.918,5231.194,13263.241,24.76,,,,,2007-01-01 08:16:35.228
3.288482,629,1683,1020,-169,-27,26,-8053.677,5238.674,13271.392,13.489,,,,,2007-01-01 08:16:35.248
3.308471,864,1827,1048,-99,17,32,-8052.127,5236.158,13273.33,4.784,,,,,2007-01-01 08:16:35.268
3.328491,635,1875,1010,7,45,6,-8058.303,5230.386,13271.859,0.42,,,,,2007-01-01 08:16:35.288
3.34848,808,1721,1162,20,26,-33,-8071.11,5220.719,13267.883,2.92,-297,-394,481,,2007-01-01 08:16:35.308
3.368499,790,1695,982,94,50,-40,-8078.45,5213.695,13266.177,0.652,,,,,2007-01-01 08:16:35.328
3.388519,684,1722,1083,27,26,-4,-8080.864,5213.106,13264.936,-7.944,,,,,2007-01-01 08:16:35.349
3.408508,763,1851,1073,-41,49,18,-8078.671,5209.733,13267.585,-19.385,,,,,2007-01-01 08:16:35.369
3.428527,678,1813,1159,-29,79,4,-8075.051,5204.554,13271.795,-32.313,,,,,2007-01-01 08:16:35.389
3.448608,731,1764,997,-60,52,23,-8070.425,5212.235,13271.57,-41.503,-317,-414,436,,2007-01-01 08:16:35.409
3.468566,566,1523,1152,-53,-32,85,-8053.372,5231.787,13274.215,-47.588,,,,,2007-01-01 08:16:35.429
3.488555,469,1365,1043,-100,-68,103,-8036.687,5243.334,13279.769,-47.675,,,,,2007-01-01 08:16:35.449
3.508605,577,1368,1211,-76,-55,6,-8027.544,5245.836,13284.335,-40.473,,,,,2007-01-01 08:16:35.469
3.528564,455,1283,1182,14,-54,-24,-8041.143,5245.563,13276.268,-15.344,,,,,2007-01-01 08:16:35.489
3.548614,625,1462,1216,231,-101,-61,-8075.153,5242.636,13256.752,24.853,-331,-430,436,,2007-01-01 08:16:35.509
3.568603,780,1416,1339,344,-79,-119,-8125.488,5224.59,13232.953,67.123,,,,,2007-01-01 08:16:35.529
3.588623,829,1409,1050,378,-27,-187,-8138.876,5217.347,13227.412,94.823,,,,,2007-01-01 08:16:35.549
3.608642,912,1595,672,-73,-149,-18,-8103.371,5241.907,13239.488,95.799,,,,,2007-01-01 08:16:35.569
3.628631,1007,1575,814,-267,-109,129,-8063.425,5266.097,13254.37,80.742,,,,,2007-01-01 08:16:35.589
3.648651,552,1352,957,-210,-64,111,-8046.308,5279.378,13259.553,69.126,-321,-423,452,,2007-01-01 08:16:35.609
3.66867,540,1478,561,-97,-1,60,-8033.53,5286.76,13264.438,51.94,,,,,2007-01-01 08:16:35.629
3.688659,535,1376,712,-111,55,79,-8028.408,5283.309,13268.981,29.761,,,,,2007-01-01 08:16:35.649
3.708709,658,1706,849,-76,88,37,-8007.407,5284.252,13281.322,4.164,,,,,2007-01-01 08:16:35.669
3.728698,765,1887,996,-247,71,34,-7989.469,5281,13293.405,-15.369,-321,-423,452,33027,2007-01-01 08:16:35.689
3.748718,868,1994,960,-107,60,15,-7987.734,5272.658,13297.744,-24.787,-336,-428,448,,2007-01-01 08:16:35.709
3.768707,869,1975,1094,-23,48,-38,-7996.073,5262.915,13296.601,-19.645,,,,,2007-01-01 08:16:35.729
3.788726,837,1801,1083,79,17,-66,-8015.019,5253.09,13289.085,-12.14,,,,,2007-01-01 08:16:35.749
3.808746,635,1707,1070,127,7,-37,-8033.157,5249.779,13279.439,-11.288,,,,,2007-01-01 08:16:35.769
3.828765,466,1630,1241,82,33,-9,-8046.274,5236.447,13276.746,-23.201,,,,,2007-01-01 08:16:35.789
3.848754,659,1608,1159,57,166,-49,-8060.791,5219.083,13274.751,-35.011,-332,-408,412,,2007-01-01 08:16:35.809
3.868774,656,1419,1233,42,112,-26,-8082.169,5210.352,13265.156,-42.786,,,,,2007-01-01 08:16:35.829
3.888793,995,1766,924,151,88,11,-8101.903,5211.702,13252.564,-48.078,,,,,2007-01-01 08:16:35.849
3.908813,434,1242,986,82,50,65,-8120.641,5196.083,13247.176,-60.595,,,,,2007-01-01 08:16:35.869
3.928802,459,1414,724,73,108,-60,-8141.574,5175.681,13242.294,-64.649,,,,,2007-01-01 08:16:35.889
3.948822,436,1435,671,111,94,-86,-8165.954,5149.972,13237.31,-63.499,-334,-415,437,,2007-01-01 08:16:35.909
3.968811,781,1359,835,106,115,-112,-8180.129,5131.819,13235.605,-64.251,,,,,2007-01-01 08:16:35.929
3.98883,619,1354,1077,41,63,-53,-8183.442,5119.061,13238.461,-71.171,,,,,2007-01-01 08:16:35.949
4.00885,493,1299,1099,-7,55,-51,-8179.717,5118.639,13240.908,-74.487,,,,,2007-01-01 08:16:35.969
4.028869,610,1366,957,-28,1,8,-8170.537,5131.02,13241.76,-78.539,,,,,2007-01-01 08:16:35.989
4.048858,687,1209,813,-64,-46,101,-8164.844,5148.791,13238.354,-81.654,-315,-408,476,,2007-01-01 08:16:36.009
4.068878,376,1194,972,-9,-61,109,-8169.815,5160.313,13230.823,-77.796,,,,,2007-01-01 08:16:36.029
4.088897,369,1253,1145,88,-31,9,-8170.039,5162.193,13229.998,-69.39,,,,,2007-01-01 08:16:36.049
4.108917,184,1245,925,-11,-57,-36,-8160.727,5159.034,13237.044,-54.831,,,,,2007-01-01 08:16:36.069
4.128936,404,1327,903,-49,-64,-96,-8150.226,5143.862,13249.472,-37.634,,,,,2007-01-01 08:16:36.089
4.148925,587,1450,828,-74,-38,-142,-8142.686,5122.411,13262.438,-26.75,-308,-387,504,,2007-01-01 08:16:36.109
4.168945,612,1757,1013,-38,30,-160,-8138.972,5095.882,13274.94,-22.927,,,,,2007-01-01 08:16:36.129
4.188964,681,1762,1021,-41,62,-173,-8129.827,5062.617,13293.253,-25.964,,,,,2007-01-01 08:16:36.149
4.208984,701,1770,913,-136,87,-176,-8116.741,5036.237,13311.249,-30.386,,,,,2007-01-01 08:16:36.169
4.228973,884,1677,1020,-133,50,-103,-8116.868,5025.671,13315.154,-34.701,-308,-387,504,33007,2007-01-01 08:16:36.189
4.248992,928,1324,964,38,51,-22,-8125.128,5024.719,13310.464,-38.224,-297,-387,504,,2007-01-01 08:16:36.209
4.269012,621,1378,1270,46,5,42,-8129.401,5040.527,13301.845,-47.518,,,,,2007-01-01 08:16:36.229
4.289031,810,1612,1116,63,17,100,-8151.439,5057.63,13281.852,-47.474,,,,,2007-01-01 08:16:36.249
4.309021,818,1695,1359,190,-36,124,-8166.087,5084.259,13262.707,-37.002,,,,,2007-01-01 08:16:36.269
4.32901,794,1694,1363,123,-158,136,-8171.68,5116.744,13246.804,-14.065,,,,,2007-01-01 08:16:36.289
4.349029,492,1826,1390,103,-210,92,-8163.926,5136.481,13243.953,4.026,-278,-394,481,,2007-01-01 08:16:36.309
4.369049,314,1814,886,-36,-112,12,-8153.487,5130.476,13252.708,5.629,,,,,2007-01-01 08:16:36.329
4.389068,304,1796,950,-74,68,-95,-8151.799,5105.106,13263.54,0.314,,,,,2007-01-01 08:16:36.349
4.409057,540,1723,692,-37,117,-109,-8151.703,5076.29,13274.649,-11.875,,,,,2007-01-01 08:16:36.369
4.429107,128,1523,732,-72,135,-98,-8157.221,5046.287,13282.661,-33.163,,,,,2007-01-01 08:16:36.389
4.449127,282,1695,644,-39,222,-87,-8172.189,5012.388,13286.233,-52.175,-299,-377,476,,2007-01-01 08:16:36.409
4.469116,400,1661,666,80,233,-114,-8203.645,4980.966,13278.625,-61.033,,,,,2007-01-01 08:16:36.429
4.489135,593,1729,669,150,182,-81,-8236.256,4955.672,13267.853,-70.064,,,,,2007-01-01 08:16:36.449
4.509124,786,1749,735,164,131,-73,-8269.777,4931.59,13255.945,-74.634,,,,,2007-01-01 08:16:36.469
4.529144,862,1606,911,186,151,-67,-8303.842,4933.577,13233.827,-85.311,,,,,2007-01-01 08:16:36.489
4.549163,947,1546,1082,206,73,129,-8341.037,4960.158,13200.353,-100.276,-277,-404,470,,2007-01-01 08:16:36.509
4.569183,1172,1517,934,271,54,256,-8386.609,4995.581,13157.878,-120.968,,,,,2007-01-01 08:16:36.529
4.589172,972,1358,1300,302,81,296,-8430.103,5028.693,13117.128,-148.271,,,,,2007-01-01 08:16:36.549
4.609191,673,1527,1096,276,87,278,-8466.769,5068.535,13077.815,-173.082,,,,,2007-01-01 08:16:36.569
4.62918,613,1248,1099,227,18,317,-8485.932,5109.465,13049.112,-196.043,,,,,2007-01-01 08:16:36.589
4.6492,586,1245,893,65,49,300,-8487.202,5137.303,13036.774,-231.271,-277,-366,470,,2007-01-01 08:16:36.609
4.669311,376,1158,849,-24,100,204,-8496.873,5139.239,13029.098,-263.435,,,,,2007-01-01 08:16:36.629
4.689239,460,1225,803,58,190,64,-8504.736,5135.371,13024.916,-290.53,,,,,2007-01-01 08:16:36.649
4.709228,667,1570,775,-41,140,74,-8493.633,5147.848,13026.764,-310.981,,,,,2007-01-01 08:16:36.669
4.729248,493,1710,931,-114,-6,128,-8470.15,5164.987,13035.092,-318.206,-277,-366,470,32986,2007-01-01 08:16:36.689
4.749267,561,1915,1161,-201,-99,80,-8436.979,5174.573,13052.697,-322.052,-280,-351,506,,2007-01-01 08:16:36.709
4.769287,551,1693,994,-175,-31,-34,-8431.927,5168.518,13058.504,-316.125,,,,,2007-01-01 08:16:36.729
4.789306,910,1457,1025,83,42,-64,-8460.428,5153.994,13045.952,-309.961,,,,,2007-01-01 08:16:36.749
4.809295,1107,1483,1006,184,102,-50,-8491.276,5144.914,13029.259,-319.276,,,,,2007-01-01 08:16:36.769
4.829315,794,1359,1554,160,62,99,-8515.618,5172.384,13001.996,-337.949,,,,,2007-01-01 08:16:36.789
4.849334,732,1335,1056,194,12,265,-8535.735,5224.068,12967.782,-349.868,-272,-345,500,,2007-01-01 08:16:36.809
4.869323,798,1493,897,156,-73,312,-8530.938,5279.951,12948.099,-356.888,,,,,2007-01-01 08:16:36.829
4.889343,509,1480,1217,19,-109,267,-8490.411,5328.219,12954.476,-374.15,,,,,2007-01-01 08:16:36.849
4.909362,544,1471,1213,-296,-75,218,-8432.359,5356.382,12979.995,-399.537,,,,,2007-01-01 08:16:36.869
4.929382,696,1774,1084,-338,-13,108,-8378.537,5384.622,13002.582,-417.441,,,,,2007-01-01 08:16:36.889
4.949371,1074,1788,1283,-306,-118,158,-8333.58,5416.847,13017.743,-427.79,-277,-371,491,,2007-01-01 08:16:36.909
4.96939,749,1817,1112,-259,-134,171,-8289.539,5450.801,13031.119,-444.617,,,,,2007-01-01 08:16:36.929
4.98941,701,1611,1196,-269,-68,134,-8260.402,5462.713,13044.282,-454.587,,,,,2007-01-01 08:16:36.949
5.009399,918,1576,885,-98,1,33,-8256.504,5463.896,13045.922,-464.038,,,,,2007-01-01 08:16:36.969
5.029418,1108,1774,1085,-34,59,27,-8258.653,5465.834,13042.873,-488.052,,,,,2007-01-01 08:16:36.989
5.049438,845,1786,827,19,154,82,-8267.15,5471.372,13034.18,-513.719,-277,-395,486,,2007-01-01 08:16:37.009
5.069427,1037,1672,981,-63,53,162,-8267.563,5492.251,13023.997,-541.766,,,,,2007-01-01 08:16:37.029
5.089447,1088,1592,863,9,37,198,-8282.721,5519.657,13001.962,-560.668,,,,,2007-01-01 08:16:37.049
5.109466,757,1579,793,152,32,234,-8314.697,5546.038,12969.569,-577.05,,,,,2007-01-01 08:16:37.069
5.129486,821,1540,878,225,33,230,-8348.134,5565.173,12938.941,-597.274,,,,,2007-01-01 08:16:37.089
5.149475,987,1700,888,189,124,146,-8374.758,5579.404,12915.03,-609.193,-304,-401,437,,2007-01-01 08:16:37.109
5.169494,1284,1807,1151,163,56,124,-8398.125,5589.383,12895.324,-613.463,,,,,2007-01-01 08:16:37.129
5.189514,1123,1648,931,154,11,79,-8421.998,5599.423,12875.489,-611.247,,,,,2007-01-01 08:16:37.150
5.209533,895,1421,1051,150,-23,50,-8431.626,5608.209,12865.331,-611.845,,,,,2007-01-01 08:16:37.170
5.229553,816,1393,967,66,30,48,-8441.57,5610.988,12857.462,-614.651,-304,-401,437,32995,2007-01-01 08:16:37.190
5.249542,769,1441,821,105,28,7,-8457.267,5612.356,12846.89,-607.404,-328,-392,427,,2007-01-01 08:16:37.210
5.269561,895,1304,1006,139,-14,-15,-8475.969,5610.667,12835.866,-595.251,,,,,2007-01-01 08:16:37.230
5.289581,664,1225,997,110,-32,-28,-8484.608,5611.849,12830.211,-582.828,,,,,2007-01-01 08:16:37.250
5.3096,935,1417,806,73,-50,-37,-8486.472,5613.25,12829.018,-568.283,,,,,2007-01-01 08:16:37.270
5.329589,981,1539,913,44,-53,-44,-8488.946,5614.687,12827.618,-548.382,,,,,2007-01-01 08:16:37.290
5.349609,1115,1289,1164,78,-101,-72,-8496.327,5617.426,12822.696,-520.439,-336,-390,466,,2007-01-01 08:16:37.310
5.369628,1000,1284,886,105,-122,-81,-8506.513,5622.192,12814.865,-494.823,,,,,2007-01-01 08:16:37.330
5.389617,850,1063,1165,156,-89,-27,-8522.499,5628.995,12802.072,-473.093,,,,,2007-01-01 08:16:37.350
5.409637,579,1117,1046,159,-97,-18,-8524.667,5642.056,12795.493,-456.115,,,,,2007-01-01 08:16:37.370
5.429656,599,1439,1066,57,-116,7,-8507.733,5655.558,12801.314,-441.508,,,,,2007-01-01 08:16:37.390
5.449676,669,1512,926,-117,-154,-1,-8484.802,5660.906,12814.797,-422.725,-327,-379,504,,2007-01-01 08:16:37.410
5.469665,731,1602,1134,-130,-150,-87,-8441.715,5661.292,12843.531,-407.881,,,,,2007-01-01 08:16:37.430
5.489685,633,1901,729,-257,-162,-96,-8405.657,5649.892,12872.707,-390.518,,,,,2007-01-01 08:16:37.450
5.509704,600,1687,1058,-201,-87,-182,-8394.919,5614.616,12895.683,-371.759,,,,,2007-01-01 08:16:37.470
5.529693,874,1752,839,-65,24,-271,-8381.007,5574.981,12922.239,-359.818,,,,,2007-01-01 08:16:37.490
5.549713,795,1560,749,-161,13,-215,-8365.384,5551.76,12942.457,-355.702,-344,-398,513,,2007-01-01 08:16:37.510
5.569732,842,1764,769,-111,10,-129,-8361.404,5531.837,12953.606,-353.887,,,,,2007-01-01 08:16:37.530
5.589752,820,1681,931,10,76,-124,-8373.62,5507.625,12956.328,-342.852,,,,,2007-01-01 08:16:37.550
5.609741,771,1683,1060,72,11,-147,-8390.762,5485.911,12954.793,-329.643,,,,,2007-01-01 08:16:37.570
5.62976,819,1801,1128,101,-1,-137,-8400.214,5471.826,12955.002,-314.454,,,,,2007-01-01 08:16:37.590
5.64978,929,1734,997,47,-13,-92,-8409.993,5453.467,12956.604,-305.886,-336,-404,477,,2007-01-01 08:16:37.610
5.669769,1034,1586,1014,114,68,-139,-8434.909,5438.55,12947.027,-290.552,,,,,2007-01-01 08:16:37.630
5.689788,748,1812,779,187,20,-89,-8452.168,5437.246,12936.684,-273.567,,,,,2007-01-01 08:16:37.650
5.709808,522,1280,966,80,-63,22,-8478.806,5425.522,12924.419,-261.514,,,,,2007-01-01 08:16:37.670
5.729827,583,1335,773,219,26,-110,-8501.785,5413.166,12914.688,-252.101,-336,-404,477,33011,2007-01-01 08:16:37.690
5.749816,729,1458,929,140,61,-78,-8517.215,5396.351,12911.639,-247.881,-339,-387,472,,2007-01-01 08:16:37.710
5.769836,884,1423,1037,53,43,-81,-8520.171,5382.313,12915.475,-251.636,,,,,2007-01-01 08:16:37.730
5.789855,819,1436,1017,-15,66,-99,-8516.756,5359.548,12927.288,-246.484,,,,,2007-01-01 08:16:37.750
5.809875,724,1414,894,-46,-3,-124,-8512.556,5337.736,12939.276,-235.657,,,,,2007-01-01 08:16:37.770
5.829864,454,1348,737,-22,4,-202,-8505.686,5314.772,12953.549,-217.922,,,,,2007-01-01 08:16:37.790
5.849884,530,1064,735,-30,-43,-198,-8497.361,5286.94,12970.736,-196.372,-336,-362,502,,2007-01-01 08:16:37.810
5.869903,710,1215,874,-66,-53,-199,-8493.571,5266.53,12981.867,-171.642,,,,,2007-01-01 08:16:37.830
5.889984,690,1298,1156,28,-65,-188,-8483.982,5256.415,12992.484,-151.475,,,,,2007-01-01 08:16:37.850
5.909912,693,1343,1166,-60,-113,-101,-8459.674,5258.266,13007.811,-129.739,,,,,2007-01-01 08:16:37.870
5.929931,750,1365,1391,-129,-167,-91,-8426.593,5266.617,13026.153,-100.246,,,,,2007-01-01 08:16:37.890
5.949951,746,1195,1291,-121,-222,-69,-8398.599,5274.456,13041.256,-68.678,-318,-353,513,,2007-01-01 08:16:37.910
5.96994,682,1296,1004,-41,-215,-86,-8369.085,5285.532,13055.848,-42.567,,,,,2007-01-01 08:16:37.930
5.989959,717,1213,1336,-195,-214,-56,-8316.592,5302.199,13082.642,-29.777,,,,,2007-01-01 08:16:37.950
6.009979,904,1439,1276,-295,-184,5,-8254.924,5343.425,13104.928,-18.459,,,,,2007-01-01 08:16:37.970
6.029998,914,1445,1193,-285,-317,160,-8197.447,5396.79,13119.144,-3.898,,,,,2007-01-01 08:16:37.990
6.050018,928,1485,878,-241,-301,143,-8138.623,5435.986,13139.567,8.422,-308,-356,508,,2007-01-01 08:16:38.010
6.070007,558,1540,925,-282,-264,62,-8091.069,5457.24,13160.093,22.549,,,,,2007-01-01 08:16:38.030
6.090026,257,1563,1733,-205,-192,-28,-8044.635,5474.427,13181.366,39.025,,,,,2007-01-01 08:16:38.050
6.110015,830,1674,1570,-199,-141,-19,-8008.873,5478.871,13201.198,61.017,,,,,2007-01-01 08:16:38.070
6.130035,798,2008,686,-102,-161,-101,-7990.567,5477.057,13212.902,85.6,,,,,2007-01-01 08:16:38.090
6.150054,582,1547,1184,-75,-130,-107,-7975.882,5477.759,13221.366,101.893,-306,-396,469,,2007-01-01 08:16:38.110
6.170074,507,1596,1688,-27,-102,-38,-7959.817,5488.426,13226.459,121.282,,,,,2007-01-01 08:16:38.130
6.190063,751,1722,1352,-90,-181,4,-7947.279,5496.465,13230.354,150.969,,,,,2007-01-01 08:16:38.150
6.210083,568,1945,1305,22,-182,-88,-7926.025,5495.112,13243.225,185.19,,,,,2007-01-01 08:16:38.170
6.230102,495,1911,1379,-128,-188,-152,-7906.085,5480.3,13260.758,218.728,-306,-396,469,33001,2007-01-01 08:16:38.190
6.250122,535,2081,902,-41,-114,-209,-7886.184,5458.193,13281.335,240.418,-333,-383,372,,2007-01-01 08:16:38.210
6.270111,681,1876,1108,-173,-48,-176,-7866.139,5430.986,13304.228,247.367,,,,,2007-01-01 08:16:38.230
6.29013,726,1680,1208,-174,43,-195,-7833.073,5409.544,13332.598,238.867,,,,,2007-01-01 08:16:38.250
6.31015,732,1767,1008,-318,26,-104,-7774.721,5407.048,13368.073,218.181,,,,,2007-01-01 08:16:38.270
6.330169,489,1841,895,-451,-26,19,-7712.734,5412.903,13402.022,188.263,,,,,2007-01-01 08:16:38.290
6.350158,663,1814,880,-400,51,40,-7701.027,5392.195,13417.487,157.805,-320,-342,328,,2007-01-01 08:16:38.310
6.370178,736,1720,976,5,252,-110,-7742.325,5347.223,13412.026,128.854,,,,,2007-01-01 08:16:38.330
6.390197,1013,1664,875,179,344,-111,-7792.965,5314.69,13395.949,88.091,,,,,2007-01-01 08:16:38.350
6.410186,1079,1280,950,195,352,39,-7832.023,5313.374,13373.898,41.71,,,,,2007-01-01 08:16:38.370
6.430206,800,1115,995,122,246,221,-7839.134,5344.78,13357.272,-4.386,,,,,2007-01-01 08:16:38.390
6.450225,479,1165,1185,-46,79,300,-7826.883,5389.531,13346.427,-34.431,-323,-330,335,,2007-01-01 08:16:38.410
6.470214,391,1313,1252,-73,-52,275,-7823.595,5422.037,13335.156,-43.74,,,,,2007-01-01 08:16:38.430
6.490234,293,1526,1395,35,-57,161,-7828.023,5436.741,13326.59,-36.535,,,,,2007-01-01 08:16:38.450
6.510253,213,1618,1446,75,-63,25,-7822.106,5434.136,13331.154,-24.147,,,,,2007-01-01 08:16:38.470
6.530273,585,1357,1130,-62,-33,-70,-7797.243,5417.999,13352.279,-19.279,,,,,2007-01-01 08:16:38.490
6.550262,588,1067,930,-193,-3,-131,-7778.687,5400.79,13370.046,-27.822,-318,-349,351,,2007-01-01 08:16:38.510
6.570281,605,985,693,-84,69,-87,-7787.178,5387.38,13370.456,-48.281,,,,,2007-01-01 08:16:38.530
6.590301,458,1007,653,6,166,19,-7793.836,5379.122,13369.78,-74.617,,,,,2007-01-01 08:16:38.550
6.61029,377,1146,848,-42,145,24,-7803.4,5372.72,13366.696,-87.679,,,,,2007-01-01 08:16:38.570
6.63031,560,1388,850,76,70,-6,-7811.883,5364.454,13365.107,-80.349,,,,,2007-01-01 08:16:38.590
6.650329,552,1445,929,45,-19,-86,-7805.702,5354.108,13372.915,-71.43,-334,-375,373,,2007-01-01 08:16:38.610
6.670349,704,1632,889,-129,-24,-93,-7772.93,5343.853,13396.03,-81.346,,,,,2007-01-01 08:16:38.630
6.690368,929,1926,995,-324,49,-49,-7738.364,5322.835,13424.173,-110.207,,,,,2007-01-01 08:16:38.650
6.710357,1157,1760,842,-218,186,-100,-7752.876,5285.007,13430.437,-142.894,,,,,2007-01-01 08:16:38.670
6.730377,1192,1367,750,79,262,-99,-7804.411,5258.798,13410.509,-172.898,-334,-375,373,32990,2007-01-01 08:16:38.690
6.750396,864,1307,803,292,284,48,-7864.331,5258.376,13375.162,-205.572,-331,-378,375,,2007-01-01 08:16:38.710
6.770385,295,1577,1128,276,262,148,-7921.658,5256.328,13341.383,-247.531,,,,,2007-01-01 08:16:38.730
6.790405,17,1670,982,304,365,116,-7988.809,5218.671,13315.585,-273.903,,,,,2007-01-01 08:16:38.750
6.810424,368,1775,1051,384,401,-168,-8060.591,5160.937,13294.683,-280.051,,,,,2007-01-01 08:16:38.770
6.830413,962,1978,904,309,295,-239,-8099.848,5119.55,13286.825,-279.964,,,,,2007-01-01 08:16:38.790
6.850433,1088,1890,933,172,151,-133,-8141.685,5089.348,13272.886,-278.277,-323,-387,371,,2007-01-01 08:16:38.810
6.870452,1299,1536,719,201,126,-91,-8181.768,5067.466,13256.352,-289.89,,,,,2007-01-01 08:16:38.830
6.890472,870,1225,949,218,135,-26,-8226.146,5054.152,13233.733,-299.676,,,,,2007-01-01 08:16:38.850
6.910461,581,1122,867,239,123,13,-8254.013,5054.045,13216.086,-313.675,,,,,2007-01-01 08:16:38.870
6.93048,330,1239,1009,102,64,109,-8269.197,5059.994,13204.043,-324.862,,,,,2007-01-01 08:16:38.890
6.9505,269,1223,1213,96,80,38,-8285.655,5047.89,13198.323,-326.243,-327,-396,408,,2007-01-01 08:16:38.910
6.97052,589,1344,974,101,111,-92,-8291.828,5025.291,13203.269,-318.063,,,,,2007-01-01 08:16:38.931
6.990509,754,1325,998,11,17,-156,-8288.856,5007.157,13212.101,-314.724,,,,,2007-01-01 08:16:38.951
7.010559,797,1202,795,-46,24,-81,-8284.142,5000.726,13217.532,-313.034,,,,,2007-01-01 08:16:38.971
7.030517,615,1071,792,-22,-10,-31,-8294.302,4987.968,13216.057,-309.833,,,,,2007-01-01 08:16:38.991
7.050537,353,960,788,93,29,-94,-8316.578,4960.531,13212.505,-304.634,-323,-370,488,,2007-01-01 08:16:39.011
7.070556,402,948,743,143,119,-171,-8338.222,4924.162,13212.574,-299.989,,,,,2007-01-01 08:16:39.031
7.090576,526,1055,850,93,143,-188,-8347.675,4890.664,13218.943,-304.472,,,,,2007-01-01 08:16:39.051
7.110656,746,1333,734,-28,85,-105,-8336.763,4885.379,13227.769,-304.997,,,,,2007-01-01 08:16:39.071
7.130584,824,1477,1023,-103,-51,4,-8312.196,4899.079,13238.146,-305.519,,,,,2007-01-01 08:16:39.091
7.150604,1043,1732,1084,-159,-109,37,-8281.852,4922.988,13248.336,-303.548,-292,-344,526,,2007-01-01 08:16:39.111
7.170623,1054,1629,969,-163,-153,108,-8263.492,4943.784,13252.092,-301.963,,,,,2007-01-01 08:16:39.131
7.190643,648,1386,1041,-45,-101,62,-8260.962,4955.762,13249.372,-294.124,,,,,2007-01-01 08:16:39.151
7.210632,676,1736,963,28,-63,-37,-8262.421,4948.047,13251.778,-273.935,,,,,2007-01-01 08:16:39.171
7.230651,660,1733,837,49,-45,-112,-8271.566,4928.049,13253.886,-255.853,-292,-344,526,32995,2007-01-01 08:16:39.191
7.250671,581,1953,1004,21,-1,-148,-8270.103,4904.777,13263.533,-250.368,-292,-346,519,,2007-01-01 08:16:39.211
7.27069,506,2066,1027,-77,40,-147,-8250.8,4874.504,13286.75,-247.416,,,,,2007-01-01 08:16:39.231
7.290679,580,2088,997,-183,43,-194,-8233.055,4839.756,13310.669,-234.7,,,,,2007-01-01 08:16:39.251
7.310699,456,2074,861,-106,14,-254,-8229.617,4800.851,13327.223,-213.978,,,,,2007-01-01 08:16:39.271
7.330719,791,2002,868,3,-3,-254,-8238.288,4760.713,13336.561,-194.43,,,,,2007-01-01 08:16:39.291
7.350738,695,1847,859,42,69,-236,-8261.085,4718.346,13337.689,-182.154,-295,-376,496,,2007-01-01 08:16:39.311
7.370727,826,1954,1132,132,123,-238,-8284.392,4689.474,13333.407,-182.692,,,,,2007-01-01 08:16:39.331
7.390747,990,1902,1099,134,131,-66,-8311.936,4675.837,13320.884,-194.269,,,,,2007-01-01 08:16:39.351
7.410736,1058,2164,1446,148,103,34,-8340.519,4670.695,13304.586,-209.244,,,,,2007-01-01 08:16:39.371
7.430755,912,1727,1169,126,117,47,-8368.163,4672.351,13286.413,-222.791,,,,,2007-01-01 08:16:39.391
7.450775,985,1748,1163,184,103,50,-8396.94,4674.292,13267.339,-235.657,-284,-357,466,,2007-01-01 08:16:39.411
7.470794,777,1512,877,177,89,80,-8429.537,4678.685,13244.833,-250.251,,,,,2007-01-01 08:16:39.431
7.490783,487,1142,898,195,110,84,-8460.471,4675.603,13225.761,-271.77,,,,,2007-01-01 08:16:39.451
7.510803,319,948,904,164,165,55,-8487.425,4662.428,13212.795,-287.869,,,,,2007-01-01 08:16:39.471
7.530822,232,1151,844,145,152,-20,-8508.211,4652.729,13202.702,-294.169,,,,,2007-01-01 08:16:39.491
7.550811,544,1475,876,106,71,5,-8512.567,4661.683,13196.753,-293.346,-287,-337,456,,2007-01-01 08:16:39.511
7.570831,658,1995,921,0,-61,72,-8496.418,4673.097,13203.218,-288.945,,,,,2007-01-01 08:16:39.531
7.59085,839,2206,1013,-139,-114,34,-8465.339,4685.333,13218.907,-285.696,,,,,2007-01-01 08:16:39.551
7.61087,812,1848,812,-217,-107,20,-8433.141,4697.085,13235.108,-294.734,,,,,2007-01-01 08:16:39.571
7.630889,775,1475,611,-206,-9,82,-8409.741,4700.572,13248.293,-314.711,,,,,2007-01-01 08:16:39.591
7.650909,738,1681,1123,-186,46,43,-8398.28,4698.486,13255.619,-342.209,-278,-344,456,,2007-01-01 08:16:39.611
7.670898,798,1248,929,-115,133,80,-8400.407,4711.72,13248.694,-374.7,,,,,2007-01-01 08:16:39.631
7.690917,1302,1685,1078,-37,99,229,-8396.14,4755.904,13234.377,-415.806,,,,,2007-01-01 08:16:39.651
7.710937,964,1562,1200,-15,18,372,-8398.244,4818.191,13209.143,-456.619,,,,,2007-01-01 08:16:39.671
7.730926,1008,1550,1097,50,-2,436,-8392.384,4884.904,13187.122,-490.745,-278,-344,456,32992,2007-01-01 08:16:39.691
7.750946,1011,1610,981,-16,-46,415,-8393.908,4927.425,13169.416,-514.504,-266,-342,405,,2007-01-01 08:16:39.711
7.770965,949,1821,1133,25,-20,249,-8400.732,4959.792,13152.172,-532.884,,,,,2007-01-01 08:16:39.731
7.790954,951,2051,1179,71,47,152,-8398.821,4971.393,13148.62,-542.479,,,,,2007-01-01 08:16:39.751
7.810974,1642,2339,113,-62,-2,50,-8384.998,4976.714,13155.527,-540.054,,,,,2007-01-01 08:16:39.771
7.830993,641,1808,1289,-113,-124,27,-8369.666,4987.546,13161.273,-537.949,,,,,2007-01-01 08:16:39.791
7.850982,548,1547,1115,-42,-57,18,-8369.432,4987.571,13161.954,-524.52,-287,-363,408,,2007-01-01 08:16:39.811
7.871032,507,1656,612,22,-6,-26,-8367.668,4981.433,13165.395,-524.663,,,,,2007-01-01 08:16:39.831
7.891021,520,1900,859,-63,9,-16,-8361.424,4975.257,13171.558,-528.122,,,,,2007-01-01 08:16:39.851
7.911041,930,1858,1114,-41,10,-20,-8360.856,4970.981,13173.8,-521.396,,,,,2007-01-01 08:16:39.871
7.93106,1008,1967,766,1,-35,-15,-8367.077,4976.496,13167.859,-519.063,,,,,2007-01-01 08:16:39.891
7.951049,776,1768,416,39,-2,32,-8373.34,4971.779,13165.239,-529.634,-298,-369,409,,2007-01-01 08:16:39.911
7.971069,624,1441,637,25,183,-37,-8392.006,4949.488,13161.144,-544.527,,,,,2007-01-01 08:16:39.931
7.991088,468,1430,624,86,156,-46,-8433.197,4927.176,13142.684,-556.244,,,,,2007-01-01 08:16:39.951
8.011108,329,1501,584,299,222,-79,-8495.458,4895.502,13114.522,-553.165,,,,,2007-01-01 08:16:39.971
8.031097,812,1654,876,367,182,-111,-8552.583,4867.523,13088.042,-546.937,,,,,2007-01-01 08:16:39.991
8.051116,936,1671,824,277,110,-72,-8582.392,4860.983,13070.86,-549.028,-301,-379,403,,2007-01-01 08:16:40.011
8.071136,811,1480,878,111,66,17,-8585.457,4870.848,13064.816,-557.469,,,,,2007-01-01 08:16:40.031
8.091125,770,1295,621,-14,-18,97,-8573.435,4890.396,13064.953,-568.035,,,,,2007-01-01 08:16:40.051
8.111145,798,1225,688,-97,-64,135,-8559.412,4914.896,13064.278,-583.371,,,,,2007-01-01 08:16:40.071
8.131134,757,1079,983,-51,-1,140,-8557.131,4938.22,13056.477,-594.418,,,,,2007-01-01 08:16:40.091
8.151153,649,1034,935,51,-14,151,-8572.548,4961.037,13037.194,-605.434,-295,-347,407,,2007-01-01 08:16:40.111
8.171173,733,1318,629,157,48,113,-8588.34,4977.426,13020.065,-615.62,,,,,2007-01-01 08:16:40.131
8.191192,752,1596,657,62,18,127,-8579.126,4987.501,13021.687,-628.102,,,,,2007-01-01 08:16:40.151
8.211212,586,1418,1053,-159,-14,74,-8547.622,4994.127,13039.399,-637.465,,,,,2007-01-01 08:16:40.171
8.231201,462,1377,807,-229,-24,4,-8508.495,4996.811,13063.802,-640.224,-295,-347,407,33005,2007-01-01 08:16:40.191
8.25122,536,1293,809,-247,-49,-23,-8470.795,4994.908,13089.051,-639.299,-285,-325,437,,2007-01-01 08:16:40.211
8.27124,621,1327,917,-263,-88,-49,-8438.857,4991.44,13111.09,-637.154,,,,,2007-01-01 08:16:40.231
8.291259,826,1690,1190,-189,-54,-52,-8410.306,4987.35,13131.206,-632.415,,,,,2007-01-01 08:16:40.251
8.311248,989,1850,1132,-147,-54,-71,-8392.13,4983.86,13144.535,-624.443,,,,,2007-01-01 08:16:40.271
8.331329,740,1721,981,-100,-68,-78,-8367.792,4987.343,13159.14,-615.574,,,,,2007-01-01 08:16:40.291
8.351287,773,1599,1119,-155,-121,-2,-8330.977,4994.602,13179.998,-609.806,-279,-317,454,,2007-01-01 08:16:40.311
8.371307,744,1347,1193,-245,-117,8,-8307.258,4996.451,13194.16,-611.977,,,,,2007-01-01 08:16:40.331
8.391296,670,1298,801,-62,-10,-28,-8290.794,5002.367,13201.933,-619.245,,,,,2007-01-01 08:16:40.351
8.411315,582,1238,857,-123,-8,46,-8278.318,5005.586,13207.874,-633.304,,,,,2007-01-01 08:16:40.371
8.431335,593,1325,1042,-92,41,48,-8263.306,5008.545,13215.37,-649.359,,,,,2007-01-01 08:16:40.391
8.451354,476,1477,1056,-131,33,38,-8241.748,5007.928,13228.166,-667.305,-288,-345,466,,2007-01-01 08:16:40.411
8.471344,1007,1744,837,-125,44,21,-8230.394,5007.855,13234.758,-677.216,,,,,2007-01-01 08:16:40.431
8.491363,1211,1682,969,-81,33,33,-8225.766,5015.916,13234.003,-688.442,,,,,2007-01-01 08:16:40.451
8.511352,1123,1386,1058,-29,5,106,-8221.994,5043.594,13224.716,-709.427,,,,,2007-01-01 08:16:40.471
8.531372,637,1196,1095,-14,49,228,-8227.793,5077.036,13206.706,-738.568,,,,,2007-01-01 08:16:40.491
8.551391,966,1309,813,97,138,240,-8240.427,5113.673,13183.434,-760.407,-273,-368,490,,2007-01-01 08:16:40.511
8.571411,889,1343,1047,122,21,261,-8243.558,5164.11,13160.977,-774.48,,,,,2007-01-01 08:16:40.531
8.5914,783,1489,1290,7,-133,329,-8218.799,5226.425,13151.517,-780.278,,,,,2007-01-01 08:16:40.551
8.611419,880,1760,1092,-120,-212,292,-8162.837,5286.902,13162.36,-777.466,,,,,2007-01-01 08:16:40.571
8.631439,738,1560,1014,-291,-278,219,-8116.666,5318.277,13178.39,-775.333,,,,,2007-01-01 08:16:40.591
8.651428,629,1323,964,-238,-169,95,-8091.758,5326.509,13190.624,-771.116,-288,-378,466,,2007-01-01 08:16:40.611
8.671447,439,1375,912,-98,-59,-34,-8077.477,5321.241,13201.94,-763.514,,,,,2007-01-01 08:16:40.631
8.691467,743,1657,844,-123,-51,-54,-8060.522,5309.018,13217.7,-755.075,,,,,2007-01-01 08:16:40.651
8.711486,823,1692,1092,-66,-32,-128,-8048.622,5291.238,13232.701,-743.996,,,,,2007-01-01 08:16:40.671
8.731475,949,1863,1224,-100,-23,-148,-8032.992,5272.114,13250.013,-740.576,-288,-378,466,32995,2007-01-01 08:16:40.691
8.751525,1026,1626,769,-109,26,-91,-8025.602,5256.391,13260.628,-742.45,-311,-398,472,,2007-01-01 08:16:40.712
8.771514,952,1681,1024,-87,-1,-56,-8012.864,5254.215,13268.703,-751.12,,,,,2007-01-01 08:16:40.732
8.791534,1127,1827,1010,-106,16,1,-8014.163,5248.548,13269.513,-762.492,,,,,2007-01-01 08:16:40.752
8.811553,976,1741,949,57,98,13,-8043.804,5239.119,13254.566,-775.082,,,,,2007-01-01 08:16:40.772
8.831542,1055,1562,1124,187,149,15,-8078.764,5234.83,13234.037,-791.088,,,,,2007-01-01 08:16:40.792
8.851562,818,1559,912,148,147,59,-8104.757,5234.544,13216.846,-814.17,-321,-411,413,,2007-01-01 08:16:40.812
8.871582,732,1564,873,95,131,103,-8127.365,5230.759,13203.173,-834.719,,,,,2007-01-01 08:16:40.832
8.891571,763,1573,930,82,135,31,-8149.239,5222.394,13192.562,-841.56,,,,,2007-01-01 08:16:40.852
8.91159,573,1267,1132,167,65,-25,-8177.797,5218.369,13176.769,-836.929,,,,,2007-01-01 08:16:40.872
8.931579,614,1067,1108,149,10,22,-8192.867,5230.111,13162.889,-834.661,,,,,2007-01-01 08:16:40.892
8.951629,766,1125,964,119,-4,44,-8205.147,5246.901,13148.877,-829.498,-328,-407,418,,2007-01-01 08:16:40.912
8.971618,968,1183,1027,144,-49,91,-8212.744,5272.197,13134.664,-819.033,,,,,2007-01-01 08:16:40.932
8.991638,823,1229,1306,83,-114,101,-8220.094,5290.785,13123.435,-805.305,,,,,2007-01-01 08:16:40.952
9.011657,771,1303,1016,123,-132,42,-8228.462,5303.613,13114.283,-784.299,,,,,2007-01-01 08:16:40.972
9.031677,735,1430,801,116,-92,3,-8225.78,5314.876,13112.441,-766.787,,,,,2007-01-01 08:16:40.992
9.051666,886,1128,829,-12,-108,12,-8227.248,5322.067,13108.828,-762.914,-313,-403,451,,2007-01-01 08:16:41.012
9.071685,605,1101,889,34,-21,19,-8230.181,5323.674,13105.93,-769.825,,,,,2007-01-01 08:16:41.032
9.091674,862,1525,494,9,50,34,-8234.345,5320.026,13104.385,-776.783,,,,,2007-01-01 08:16:41.052
9.111694,790,1677,641,-1,75,-43,-8229.991,5308.233,13111.762,-779.118,,,,,2007-01-01 08:16:41.072
9.131713,683,1902,855,-76,-6,-76,-8213.304,5287.29,13130.946,-774.525,,,,,2007-01-01 08:16:41.092
9.151733,824,2209,901,-205,-1,-172,-8203.684,5247.856,13153.189,-767.218,-321,-407,489,,2007-01-01 08:16:41.112
9.171722,828,2141,770,-67,75,-240,-8242.717,5199.322,13148.929,-752.166,,,,,2007-01-01 08:16:41.132
9.191741,913,1560,680,327,190,-227,-8309.164,5151.205,13126.49,-744.024,,,,,2007-01-01 08:16:41.152
9.211761,1049,1110,504,312,248,-180,-8367.291,5118.532,13101.825,-752.79,,,,,2007-01-01 08:16:41.172
9.231781,693,1264,820,324,219,-68,-8424.45,5100.402,13071.78,-760.619,-321,-407,489,32995,2007-01-01 08:16:41.192
9.2518,529,1692,1049,318,146,-13,-8468.516,5093.852,13046.204,-754.257,-326,-397,477,,2007-01-01 08:16:41.212
9.271789,877,1729,1251,265,71,-9,-8473.424,5112.922,13035.956,-747.262,,,,,2007-01-01 08:16:41.232
9.291809,907,1393,1185,-46,-127,134,-8456.072,5133.641,13039.483,-740.203,,,,,2007-01-01 08:16:41.252
9.311798,836,1346,1097,-74,-144,69,-8447.837,5153.934,13037.285,-731.866,,,,,2007-01-01 08:16:41.272
9.331817,862,1480,933,58,-63,44,-8458.083,5166.71,13025.93,-725.606,,,,,2007-01-01 08:16:41.292
9.351837,721,1318,767,130,-12,45,-8476.254,5165.258,13014.886,-722.079,-312,-390,491,,2007-01-01 08:16:41.312
9.371856,542,1114,989,87,-33,34,-8481.266,5175.181,13007.877,-718.464,,,,,2007-01-01 08:16:41.332
9.391845,474,1007,956,69,-16,18,-8490.252,5177.529,13001.819,-704.953,,,,,2007-01-01 08:16:41.352
9.411865,448,894,1194,93,-66,-43,-8482.395,5182.81,13005.939,-684.413,,,,,2007-01-01 08:16:41.372
9.431884,943,1197,1181,-18,-151,-49,-8455.733,5200.638,13017.767,-653.532,,,,,2007-01-01 08:16:41.392
9.451904,1077,1505,1170,-171,-318,1,-8416.681,5228.571,13033.834,-613.283,-290,-334,561,,2007-01-01 08:16:41.412
9.471893,877,1838,1361,-76,-334,-47,-8385.805,5253.789,13045.787,-564.677,,,,,2007-01-01 08:16:41.432
9.491912,738,1494,1081,-68,-349,-55,-8359.967,5269.117,13058.13,-517.719,,,,,2007-01-01 08:16:41.452
9.511932,667,1361,1053,-60,-265,-103,-8322.136,5279.231,13079.27,-489.8,,,,,2007-01-01 08:16:41.472
9.531951,609,1501,1078,-282,-188,-35,-8274.149,5280.141,13109.055,-496.667,,,,,2007-01-01 08:16:41.492
9.552032,796,1689,721,-303,-9,-19,-8233.518,5278.345,13134.752,-511.842,-290,-339,554,,2007-01-01 08:16:41.512
9.57196,665,1772,831,-263,10,-15,-8206.053,5269.257,13155.063,-524.768,,,,,2007-01-01 08:16:41.532
9.591979,382,1875,818,-202,16,-35,-8181.868,5257.468,13174.464,-533.847,,,,,2007-01-01 08:16:41.552
9.611969,535,1933,990,-224,29,-71,-8159.326,5237.475,13196.228,-537.821,,,,,2007-01-01 08:16:41.572
9.631988,607,2211,948,-152,50,-121,-8151.851,5212.533,13211.084,-528.69,,,,,2007-01-01 08:16:41.592
9.652008,788,2291,1204,-59,12,-158,-8143.421,5183.764,13227.927,-520.246,-297,-410,522,,2007-01-01 08:16:41.612
9.672027,1163,2260,1080,-138,61,-196,-8138.484,5159.19,13240.801,-514.253,,,,,2007-01-01 08:16:41.632
9.692047,1186,1765,1034,14,25,-97,-8164.023,5153.913,13227.075,-515.572,,,,,2007-01-01 08:16:41.652
9.712036,1094,1510,1095,185,69,52,-8199.39,5172.798,13197.203,-530.495,,,,,2007-01-01 08:16:41.672
9.732055,870,1686,1002,212,76,214,-8233.129,5209.092,13160.85,-555.341,-297,-410,522,33001,2007-01-01 08:16:41.692
9.752044,662,1478,1076,226,73,306,-8270.267,5241.869,13123.646,-575.183,-297,-415,442,,2007-01-01 08:16:41.712
9.772064,609,1293,1117,278,68,244,-8307.025,5269.491,13088.63,-590.757,,,,,2007-01-01 08:16:41.732
9.792083,636,1286,1109,205,44,222,-8317.338,5294.005,13071.32,-609.436,,,,,2007-01-01 08:16:41.752
9.812103,571,1469,897,-15,30,185,-8302.907,5310.392,13072.964,-628.089,,,,,2007-01-01 08:16:41.772
9.832122,590,1448,1038,-116,3,75,-8293.46,5312.067,13078.039,-633.086,,,,,2007-01-01 08:16:41.792
9.852111,620,1332,958,-17,19,-14,-8295.371,5310.688,13077.847,-623.522,-298,-407,443,,2007-01-01 08:16:41.812
9.872131,356,1219,810,36,-36,-44,-8294.858,5308.871,13079.475,-611.546,,,,,2007-01-01 08:16:41.832
9.89212,357,1224,826,-17,-37,-62,-8283.624,5300.167,13090.47,-604.011,,,,,2007-01-01 08:16:41.852
9.912139,564,1278,855,-104,-7,-69,-8262.323,5289.876,13108.125,-603.083,,,,,2007-01-01 08:16:41.872
9.932159,635,1286,1058,-160,-30,-51,-8243.947,5294.889,13117.468,-607.42,,,,,2007-01-01 08:16:41.892
9.952148,1063,1875,1059,-79,-28,58,-8225.108,5318.054,13119.823,-609.562,-288,-400,470,,2007-01-01 08:16:41.912
9.972198,834,1833,1282,-117,-106,129,-8203.688,5337.91,13125.305,-606.646,,,,,2007-01-01 08:16:41.932
9.992187,870,1571,838,-135,-153,81,-8190.325,5355.89,13126.535,-602.092,,,,,2007-01-01 08:16:41.952
10.012207,786,1450,787,-34,-67,66,-8182.06,5366.893,13126.641,-614.07,,,,,2007-01-01 08:16:41.972
10.032226,1046,1487,737,-53,47,99,-8190.52,5370.114,13119.03,-635.394,,,,,2007-01-01 08:16:41.992
10.052215,936,1322,1033,57,127,106,-8210.263,5383.712,13099.963,-658.5,-281,-409,470,,2007-01-01 08:16:42.012
10.072235,987,1390,958,86,45,195,-8215.757,5417.894,13081.514,-676.162,,,,,2007-01-01 08:16:42.032
10.092254,695,1546,913,53,-37,254,-8219.01,5468.32,13058.01,-684.958,,,,,2007-01-01 08:16:42.052
10.112274,807,1582,1115,90,-108,300,-8218.917,5518.215,13036.928,-687.493,,,,,2007-01-01 08:16:42.072
10.132263,684,1710,1345,69,-121,238,-8214.736,5549.295,13026.602,-683,,,,,2007-01-01 08:16:42.092
10.152282,678,1753,986,25,-115,126,-8213.662,5563.553,13021.5,-677.193,-291,-414,441,,2007-01-01 08:16:42.112
10.172271,829,1373,1083,35,-20,43,-8217.183,5578.862,13012.976,-672.381,,,,,2007-01-01 08:16:42.132
10.192321,652,1395,1115,68,-62,110,-8219.897,5597.144,13003.198,-676.408,,,,,2007-01-01 08:16:42.152
10.21231,775,1371,1033,39,-41,121,-8218.657,5619.008,12994.457,-678.196,,,,,2007-01-01 08:16:42.172
10.23233,709,1457,832,9,-45,109,-8203.107,5646.01,12992.686,-676.118,-291,-414,441,32995,2007-01-01 08:16:42.192
10.252349,906,1468,1058,-65,-140,141,-8191.01,5672.374,12988.785,-677.072,-288,-421,459,,2007-01-01 08:16:42.212
10.272338,833,1435,822,-19,-102,145,-8187.901,5695.817,12980.133,-683.747,,,,,2007-01-01 08:16:42.232
10.292388,909,1615,827,11,1,98,-8180.806,5704.943,12980.124,-692.71,,,,,2007-01-01 08:16:42.252
10.312377,818,1719,825,-50,6,37,-8169.126,5705.357,12987.088,-696.597,,,,,2007-01-01 08:16:42.272
10.332397,555,1501,1068,-87,-31,-23,-8166.569,5705.638,12988.725,-693.742,,,,,2007-01-01 08:16:42.292
10.352386,537,1453,879,-2,-15,6,-8170.849,5708.94,12984.945,-686.921,-300,-418,454,,2007-01-01 08:16:42.312
10.372406,558,1471,827,81,-14,24,-8176.264,5713.13,12980.074,-679.676,,,,,2007-01-01 08:16:42.332
10.392425,789,1416,1054,26,-40,20,-8180.078,5722.734,12973.842,-671.931,,,,,2007-01-01 08:16:42.352
10.412445,765,1504,1175,62,-73,54,-8180.194,5737.618,12967.964,-656.874,,,,,2007-01-01 08:16:42.372
10.432434,932,1623,1234,41,-124,46,-8177.937,5755.151,12962.495,-639.324,,,,,2007-01-01 08:16:42.392
10.452453,965,1606,1310,42,-127,18,-8174.268,5771.452,12958.338,-623.366,-308,-420,440,,2007-01-01 08:16:42.412
10.472442,875,1385,1187,37,-94,45,-8174.593,5785.245,12952.507,-612.332,,,,,2007-01-01 08:16:42.432
10.492492,874,1262,989,39,-72,57,-8181.844,5804.888,12939.19,-611.141,,,,,2007-01-01 08:16:42.452
10.512481,909,1262,759,72,-28,131,-8194.397,5833.807,12917.958,-616.718,,,,,2007-01-01 08:16:42.472
10.532501,818,1251,739,160,-31,202,-8212.454,5870.733,12889.844,-614.373,,,,,2007-01-01 08:16:42.493
10.55252,646,1149,1108,146,-121,218,-8216.049,5912.096,12869.025,-606.042,-302,-423,461,,2007-01-01 08:16:42.513
10.572509,615,1577,1130,69,-152,170,-8192.059,5951.256,12867.023,-589.807,,,,,2007-01-01 08:16:42.533
10.592529,629,1730,1134,-68,-242,111,-8162.219,5980.14,12873.913,-560.253,,,,,2007-01-01 08:16:42.553
10.612518,800,1476,1049,-94,-274,7,-8157.203,5991.397,12873.277,-526.669,,,,,2007-01-01 08:16:42.573
10.632537,609,1295,1042,139,-138,-52,-8175.468,5996.97,12860.46,-491.997,,,,,2007-01-01 08:16:42.593
10.652557,776,1460,956,193,-145,-8,-8174.927,6015.468,12852.865,-473.269,-323,-429,465,,2007-01-01 08:16:42.613
10.672576,585,1569,1004,8,-110,45,-8162.623,6032.93,12852.953,-460.853,,,,,2007-01-01 08:16:42.633
10.692596,563,1761,872,-38,-136,51,-8144.807,6048.697,12857.467,-443.118,,,,,2007-01-01 08:16:42.653
10.712615,782,1772,1095,-57,-155,18,-8124.715,6059.916,12865.491,-425.43,,,,,2007-01-01 08:16:42.673
10.732604,792,1911,935,-117,-162,-19,-8097.605,6062.913,12881.484,-415.543,-323,-429,465,33001,2007-01-01 08:16:42.693
10.752624,420,2043,991,-155,-79,-68,-8094.061,6038.479,12895.399,-408.739,-319,-433,448,,2007-01-01 08:16:42.713
10.772705,587,1855,746,19,56,-168,-8128.711,5994.251,12894.913,-386.833,,,,,2007-01-01 08:16:42.733
10.792633,934,2094,496,248,130,-286,-8179.556,5940.755,12888.152,-365.033,,,,,2007-01-01 08:16:42.753
10.812652,764,1598,863,293,166,-258,-8251.888,5890.164,12865.701,-348.537,,,,,2007-01-01 08:16:42.773
10.832672,829,1779,551,430,200,-184,-8327.126,5861.03,12830.773,-337.649,,,,,2007-01-01 08:16:42.793
10.852661,729,1632,781,430,168,-38,-8391.524,5849.106,12794.271,-335.183,-321,-430,429,,2007-01-01 08:16:42.813
10.87268,751,1209,875,361,113,60,-8453.277,5844.694,12755.545,-336.383,,,,,2007-01-01 08:16:42.833
10.8927,835,1410,669,404,188,34,-8516.695,5841.316,12714.701,-341.663,,,,,2007-01-01 08:16:42.853
10.912719,690,1264,881,363,201,90,-8565.112,5843.628,12680.936,-346.64,,,,,2007-01-01 08:16:42.873
10.932739,442,1286,947,230,81,116,-8590.226,5852.367,12659.623,-356.636,,,,,2007-01-01 08:16:42.893
10.952728,438,1172,1048,144,91,81,-8600.545,5872.069,12643.431,-358.476,-312,-426,450,,2007-01-01 08:16:42.913
10.972747,696,1408,742,140,-6,101,-8606.999,5894.669,12628.896,-344.747,,,,,2007-01-01 08:16:42.933
10.992767,220,1183,916,97,-162,71,-8605.986,5925.169,12616.018,-317.656,,,,,2007-01-01 08:16:42.953
11.012756,294,888,1114,89,-238,87,-8602.548,5955.16,12605.058,-283.151,,,,,2007-01-01 08:16:42.973
11.032775,355,697,1013,97,-201,33,-8597.028,5975.428,12599.962,-248.533,,,,,2007-01-01 08:16:42.993
11.052795,426,788,891,131,-192,-31,-8600.074,5992.289,12590.408,-219.689,-286,-376,514,,2007-01-01 08:16:43.013
11.072784,448,856,980,109,-183,36,-8576.66,6030.85,12588.344,-196.905,,,,,2007-01-01 08:16:43.033
11.092803,495,1428,1126,-156,-341,166,-8490.94,6106.265,12610.294,-182.701,,,,,2007-01-01 08:16:43.053
11.112823,974,1960,1725,-529,-525,263,-8380.747,6186.25,12645.274,-160.823,,,,,2007-01-01 08:16:43.073
11.132812,999,1704,1204,-391,-537,159,-8331.592,6242.433,12650.746,-103.14,,,,,2007-01-01 08:16:43.093
11.152832,767,1598,907,77,-495,15,-8339.531,6261.926,12636.232,-39.547,-256,-344,547,,2007-01-01 08:16:43.113
11.172851,491,1290,930,200,-260,-69,-8334.862,6276.613,12632.083,-10.313,,,,,2007-01-01 08:16:43.133
11.192871,766,1628,1387,-106,-161,50,-8297.185,6300.286,12645.095,-11.342,,,,,2007-01-01 08:16:43.153
11.21286,957,2170,840,-218,-104,71,-8261.171,6329.171,12654.238,-18.11,,,,,2007-01-01 08:16:43.173
11.232879,711,2149,1188,-188,-159,135,-8221.849,6352.635,12668.07,-25.623,-256,-344,547,32986,2007-01-01 08:16:43.193
11.252899,579,2121,1301,-282,-96,94,-8193.092,6360.192,12682.897,-27.557,-244,-383,525,,2007-01-01 08:16:43.213
11.272918,607,2158,945,-136,-62,-10,-8167.18,6364.508,12697.425,-32.108,,,,,2007-01-01 08:16:43.233
11.292938,725,2009,915,-200,-27,37,-8151.224,6376.065,12701.864,-37.746,,,,,2007-01-01 08:16:43.253
11.312927,606,1800,1117,-10,-48,82,-8160.029,6388.849,12689.792,-33.898,,,,,2007-01-01 08:16:43.273
11.332946,545,1737,1104,87,-30,79,-8169.52,6397.186,12679.493,-29.327,,,,,2007-01-01 08:16:43.293
11.352966,818,1924,1172,67,0,29,-8174.768,6397.93,12675.738,-27.678,-275,-429,467,,2007-01-01 08:16:43.313
11.372955,754,1671,989,72,1,26,-8202.746,6400.086,12656.574,-20.227,,,,,2007-01-01 08:16:43.333
11.392974,726,1535,1256,242,24,52,-8235.112,6413.115,12628.929,-21.429,,,,,2007-01-01 08:16:43.353
11.412994,748,1493,1062,192,77,144,-8260.619,6421.547,12607.938,-35.287,,,,,2007-01-01 08:16:43.373
11.433013,679,1374,840,148,117,137,-8295.914,6435.24,12577.705,-47.535,,,,,2007-01-01 08:16:43.393
11.453033,716,1532,812,274,86,156,-8339.029,6455.999,12538.467,-54.299,-288,-426,425,,2007-01-01 08:16:43.413
11.473022,693,1354,907,270,36,224,-8371.999,6477.594,12505.3,-57.549,,,,,2007-01-01 08:16:43.433
11.493011,648,1210,994,185,11,179,-8389.402,6501.361,12481.268,-60.085,,,,,2007-01-01 08:16:43.453
11.513061,700,1310,994,162,-25,129,-8400.506,6526.342,12460.74,-61.139,,,,,2007-01-01 08:16:43.473
11.53305,659,1268,1173,96,-25,164,-8412.475,6549.84,12440.326,-59.74,,,,,2007-01-01 08:16:43.493
11.55307,673,1355,944,136,-39,145,-8428.931,6569.793,12418.673,-54.05,-292,-424,453,,2007-01-01 08:16:43.513
11.573089,594,1259,1107,170,-64,93,-8446.873,6588.287,12396.712,-41.985,,,,,2007-01-01 08:16:43.533
11.593078,816,1352,1057,198,-63,95,-8473.192,6606.719,12368.966,-19.834,,,,,2007-01-01 08:16:43.553
11.613098,804,1271,1067,278,-77,76,-8507.634,6625.767,12335.101,9.537,,,,,2007-01-01 08:16:43.573
11.633117,599,1335,1144,343,-116,81,-8536.453,6650.275,12301.893,40.774,,,,,2007-01-01 08:16:43.593
11.653137,528,1425,1400,284,-165,91,-8551.009,6679.669,12275.702,69.564,-282,-415,474,,2007-01-01 08:16:43.613
11.673126,599,1331,1369,188,-175,100,-8564.953,6708.303,12250.097,103.955,,,,,2007-01-01 08:16:43.633
11.693145,1091,1404,1129,214,-226,110,-8550.034,6754.958,12234.679,124.608,,,,,2007-01-01 08:16:43.653
11.713134,808,1727,1033,21,-269,173,-8515.729,6803.901,12231.425,130.155,,,,,2007-01-01 08:16:43.673
11.733184,865,1927,1080,-155,-271,157,-8489.585,6833.37,12233.123,134.701,-282,-415,474,32958,2007-01-01 08:16:43.693
11.753173,807,1785,1009,-103,-139,101,-8470.637,6854.192,12234.566,138.526,-271,-422,488,,2007-01-01 08:16:43.713
11.773193,517,1858,903,-89,-113,75,-8457.185,6860.489,12240.447,128.84,,,,,2007-01-01 08:16:43.733
11.793212,650,1838,848,-55,50,9,-8460.51,6846.55,12246.09,115.037,,,,,2007-01-01 08:16:43.753
11.813201,881,2045,754,-83,142,-30,-8444.417,6840.081,12261.022,88.762,,,,,2007-01-01 08:16:43.773
11.833221,1193,2265,631,-203,63,71,-8443.425,6841.657,12260.949,69.868,,,,,2007-01-01 08:16:43.793
11.85324,792,2077,705,39,55,49,-8484.731,6832.384,12237.6,66.703,-287,-429,472,,2007-01-01 08:16:43.813
11.873229,1125,2295,482,337,179,19,-8550.914,6817.471,12199.764,71.646,,,,,2007-01-01 08:16:43.833
11.893249,1033,2004,838,409,207,11,-8625.383,6795.226,12159.666,74.935,,,,,2007-01-01 08:16:43.853
11.913269,700,1991,1108,435,227,5,-8700.564,6777.411,12115.936,79.961,,,,,2007-01-01 08:16:43.873
11.933288,883,1629,600,550,194,12,-8797.609,6767.899,12050.874,97.434,,,,,2007-01-01 08:16:43.893
11.953277,37,514,770,670,155,88,-8888.288,6774.269,11980.411,113.129,-297,-429,421,,2007-01-01 08:16:43.913
11.973297,809,1196,1071,592,128,174,-8954.831,6784.101,11925.153,114.55,,,,,2007-01-01 08:16:43.933
11.993377,500,1296,1189,413,47,169,-8993.916,6816.849,11876.835,127.547,,,,,2007-01-01 08:16:43.953
12.013336,459,1027,997,404,-165,202,-9028.849,6860.975,11824.408,160.349,,,,,2007-01-01 08:16:43.973
12.033325,529,840,852,337,-211,226,-9033.459,6919.466,11786.288,190.91,,,,,2007-01-01 08:16:43.993
12.053344,578,740,579,155,-328,258,-9040.905,6968.158,11751.504,210.713,-313,-391,465,,2007-01-01 08:16:44.013
12.073364,452,405,706,263,-131,175,-9068.072,7012.172,11703.78,237.642,,,,,2007-01-01 08:16:44.033
12.093383,463,496,1000,244,-263,266,-9045.595,7088.116,11674.772,266.364,,,,,2007-01-01 08:16:44.053
12.113372,633,991,885,-11,-494,273,-8967.356,7177.45,11679.775,298.342,,,,,2007-01-01 08:16:44.073
12.133392,522,1666,1134,-369,-653,193,-8814.739,7281.634,11730.53,329.069,,,,,2007-01-01 08:16:44.093
12.153411,590,2070,1337,-874,-878,206,-8654.166,7374.128,11791.431,353.88,-287,-282,577,,2007-01-01 08:16:44.113
12.1734,881,1623,1201,-637,-641,74,-8561.766,7429.607,11822.408,403.983,,,,,2007-01-01 08:16:44.133
12.19342,966,1658,1526,-165,-496,-46,-8524.284,7452.329,11833.334,454.985,,,,,2007-01-01 08:16:44.153
12.213439,148,1504,1277,-70,-303,-75,-8467.727,7481.24,11855.097,469.834,,,,,2007-01-01 08:16:44.173
12.233459,736,1946,1224,-291,-227,7,-8413.128,7506.128,11877.506,487.42,-287,-282,577,33007,2007-01-01 08:16:44.193
12.253448,676,2225,1301,-218,-278,-14,-8360.17,7521.988,11903.004,530.271,-288,-276,600,,2007-01-01 08:16:44.213
12.273468,625,1888,1416,-157,-366,-193,-8319.475,7526.933,11925.588,589.414,,,,,2007-01-01 08:16:44.233
12.293487,812,1817,1229,-78,-338,-192,-8274.399,7536.709,11948.36,635.978,,,,,2007-01-01 08:16:44.253
12.313476,741,1785,1361,-140,-304,-117,-8231.188,7550.671,11967.852,663.961,,,,,2007-01-01 08:16:44.273
12.333496,735,1969,1218,-145,-226,-77,-8200.721,7557.298,11983.127,689.58,,,,,2007-01-01 08:16:44.293
12.353515,727,2096,1201,-77,-203,-83,-8177.253,7565.931,11991.723,723.345,-324,-409,509,,2007-01-01 08:16:44.314
12.373504,578,1876,1293,-29,-222,-73,-8152.748,7573.238,12001.754,756.366,,,,,2007-01-01 08:16:44.334
12.393524,669,1901,953,-55,-224,-87,-8131.96,7575.637,12012.226,789.184,,,,,2007-01-01 08:16:44.354
12.413543,671,1887,1072,-34,-169,-120,-8114.948,7565.607,12028.189,816.884,,,,,2007-01-01 08:16:44.374
12.433563,570,1747,1202,-31,-102,-164,-8104.451,7551.735,12042.199,842.635,,,,,2007-01-01 08:16:44.394
12.453582,475,1700,1188,-36,-105,-148,-8092.374,7547.199,12051.92,860.186,-334,-429,437,,2007-01-01 08:16:44.414
12.473571,569,1849,1034,-30,-95,-56,-8079.032,7552.697,12056.86,868.086,,,,,2007-01-01 08:16:44.434
12.493591,400,1655,1039,-34,-46,12,-8075.839,7552.546,12059.233,866.137,,,,,2007-01-01 08:16:44.454
12.51361,602,1591,837,-42,-4,-2,-8087.847,7550.89,12052.295,865.103,,,,,2007-01-01 08:16:44.474
12.533599,594,1402,950,136,100,34,-8121.397,7543.376,12034.543,863.477,,,,,2007-01-01 08:16:44.494
12.553619,755,1307,813,196,139,60,-8165.398,7539.669,12007.436,858.241,-324,-411,411,,2007-01-01 08:16:44.514
12.573638,608,1315,997,274,98,103,-8199.275,7549.77,11978.423,851.863,,,,,2007-01-01 08:16:44.534
12.593627,428,1315,955,164,43,184,-8208.828,7581.112,11952.625,843.849,,,,,2007-01-01 08:16:44.554
12.613647,487,1247,1041,54,-60,238,-8212.194,7619.267,11926.119,842.465,,,,,2007-01-01 08:16:44.574
12.633667,413,1302,925,80,-112,231,-8211.896,7652.588,11904.616,847.474,,,,,2007-01-01 08:16:44.594
12.653656,355,1343,1044,73,-133,171,-8207.536,7678.573,11890.474,853.186,-314,-390,411,,2007-01-01 08:16:44.614
12.673706,437,1434,1097,6,-74,109,-8208.416,7693.756,11879.631,858.968,,,,,2007-01-01 08:16:44.634
12.693725,633,1540,897,81,-42,74,-8213.931,7705.371,11867.669,867.447,,,,,2007-01-01 08:16:44.654
12.713714,467,1433,1065,71,-75,77,-8217.618,7719.171,11856.132,867.603,,,,,2007-01-01 08:16:44.674
12.733703,649,1338,957,37,-27,72,-8224.193,7732.93,11842.817,864.609,-314,-390,411,33005,2007-01-01 08:16:44.694
12.753753,739,1266,994,103,5,134,-8245.517,7750.232,11816.589,865.452,-306,-398,431,,2007-01-01 08:16:44.714
12.773742,667,1583,826,161,-1,165,-8265.433,7763.923,11794.133,859.054,,,,,2007-01-01 08:16:44.734
12.793762,770,1564,1193,121,22,134,-8280.595,7775.388,11776.498,851.239,,,,,2007-01-01 08:16:44.754
12.813751,695,1756,1288,76,20,119,-8287.881,7793.656,11759.756,844.701,,,,,2007-01-01 08:16:44.774
12.83377,701,1453,1419,43,-18,148,-8286.055,7819.041,11744.502,840.244,,,,,2007-01-01 08:16:44.794
12.85379,528,1446,1078,49,-67,172,-8285.945,7840.128,11730.534,839.943,-300,-402,434,,2007-01-01 08:16:44.814
12.873809,515,1441,1147,55,-52,121,-8296.26,7853.535,11714.219,840.566,,,,,2007-01-01 08:16:44.834
12.893829,272,1384,1050,108,0,79,-8316.109,7858.578,11696.248,847.51,,,,,2007-01-01 08:16:44.854
12.913818,399,1355,1129,167,9,62,-8338.668,7866.029,11674.355,858.525,,,,,2007-01-01 08:16:44.874
12.933837,756,1492,1110,199,-3,74,-8346.967,7889.268,11652.307,864.156,,,,,2007-01-01 08:16:44.894
12.953857,1107,1736,1368,78,-102,160,-8345.818,7920.999,11632.097,857.239,-301,-403,453,,2007-01-01 08:16:44.914
12.973876,1330,1650,803,-14,-52,234,-8346.595,7946.478,11615.017,845.375,,,,,2007-01-01 08:16:44.934
12.993865,884,1509,956,-13,-43,191,-8345.022,7980.284,11593.665,835.498,,,,,2007-01-01 08:16:44.954
13.013885,398,1164,782,17,-31,247,-8346.66,8016.876,11568.342,819.652,,,,,2007-01-01 08:16:44.974
13.033905,722,1370,720,29,-25,298,-8358.392,8054.516,11534.901,802.203,,,,,2007-01-01 08:16:44.994
13.053894,1104,1672,715,102,-25,295,-8374.43,8081.365,11505.742,783.452,-302,-418,450,,2007-01-01 08:16:45.014
13.073913,971,1600,915,50,21,233,-8373.447,8101.086,11493.705,766.79,,,,,2007-01-01 08:16:45.034
13.093933,820,1930,1197,-53,15,126,-8372.602,8108.883,11489.68,753.808,,,,,2007-01-01 08:16:45.054
13.113922,609,1759,920,-34,6,58,-8383.282,8108.374,11481.953,758.309,,,,,2007-01-01 08:16:45.074
13.133941,893,1740,763,151,34,12,-8413.672,8095.701,11467.671,773.113,,,,,2007-01-01 08:16:45.094
13.153961,617,1565,765,242,58,-43,-8461.11,8076.858,11445.142,786.219,-314,-418,445,,2007-01-01 08:16:45.114
13.17395,850,1640,788,269,163,-50,-8502.099,8068.293,11419.996,797.558,,,,,2007-01-01 08:16:45.134
13.193969,714,1508,831,291,88,61,-8539.343,8069.798,11390.07,812.225,,,,,2007-01-01 08:16:45.154
13.21405,901,1558,1097,266,-13,53,-8564.791,8078.17,11363.211,836.883,,,,,2007-01-01 08:16:45.174
13.234008,985,1636,1125,221,-70,40,-8577.682,8091.541,11342.449,857.096,-314,-418,445,32984,2007-01-01 08:16:45.194
13.254028,861,1525,827,189,-73,57,-8590.106,8108.968,11319.499,871.249,-339,-405,446,,2007-01-01 08:16:45.214
13.274017,863,1303,988,125,-69,112,-8597.211,8130.295,11298.488,875.133,,,,,2007-01-01 08:16:45.234
13.294036,736,1067,1108,96,-59,146,-8607.33,8150.783,11275.644,879.71,,,,,2007-01-01 08:16:45.254
13.314056,664,1258,854,132,-86,150,-8616.567,8168.141,11255.207,889.934,,,,,2007-01-01 08:16:45.274
13.334075,674,1423,843,139,-50,34,-8612.682,8188.802,11241.948,905.136,,,,,2007-01-01 08:16:45.294
13.354064,734,1423,916,36,-135,78,-8594.633,8215.097,11235.514,918.211,-339,-370,474,,2007-01-01 08:16:45.314
13.374084,668,1232,772,-118,-220,116,-8570.355,8241.913,11233.662,927.448,,,,,2007-01-01 08:16:45.334
13.394104,571,1113,851,-46,-174,74,-8546.058,8264.842,11234.7,934.999,,,,,2007-01-01 08:16:45.354
13.414093,625,1511,1073,-68,-170,36,-8514.385,8285.016,11243.051,944.989,,,,,2007-01-01 08:16:45.374
13.434112,756,1697,980,-145,-216,15,-8477.128,8301.209,11257.651,963.829,,,,,2007-01-01 08:16:45.394
13.454101,817,1575,1244,-145,-231,-77,-8443.877,8309.038,11274.339,992.735,-341,-337,494,,2007-01-01 08:16:45.414
13.474151,881,1482,931,-55,-211,-92,-8414.39,8316.36,11288.597,1019.41,,,,,2007-01-01 08:16:45.434
13.49414,980,1479,1084,-127,-215,-85,-8377.683,8330.759,11304.283,1030.29,,,,,2007-01-01 08:16:45.454
13.51416,720,1509,1117,-166,-246,-4,-8347.278,8343.835,11315.971,1042.868,,,,,2007-01-01 08:16:45.474
13.534179,722,1604,1169,-104,-153,-34,-8313.937,8358.247,11328.639,1056.18,,,,,2007-01-01 08:16:45.494
13.554168,556,1748,1290,-165,-181,-43,-8278.646,8367.84,11346.05,1070.444,-341,-346,488,,2007-01-01 08:16:45.514
13.574188,587,1657,1087,-140,-179,-81,-8248.627,8365.417,11367.453,1093.801,,,,,2007-01-01 08:16:45.534
13.594207,794,1732,1153,-83,-149,-150,-8226.691,8358.766,11385.538,1121.398,,,,,2007-01-01 08:16:45.554
13.614227,923,1764,1153,-34,-116,-168,-8210.37,8351.898,11399.972,1145.297,,,,,2007-01-01 08:16:45.574
13.634216,1058,1791,1260,-65,-121,-89,-8199.291,8350.627,11407.481,1159.083,,,,,2007-01-01 08:16:45.594
13.654235,1083,1614,1107,-19,-97,-31,-8198.183,8362.56,11398.853,1165.737,-350,-385,464,,2007-01-01 08:16:45.614
13.674255,851,1614,1022,100,-57,63,-8208.936,8379.84,11377.55,1174.074,,,,,2007-01-01 08:16:45.634
13.694244,765,1528,1066,100,-62,110,-8214.782,8391.164,11364.748,1176.29,,,,,2007-01-01 08:16:45.654
13.714263,692,1658,1133,47,-30,78,-8222.153,8398.098,11353.739,1181.603,,,,,2007-01-01 08:16:45.674
13.734283,785,1784,1195,73,-14,27,-8229.999,8401.426,11345.232,1185.032,-350,-385,464,32986,2007-01-01 08:16:45.694
13.754302,904,1658,1132,62,24,41,-8235.828,8399.427,11342.678,1183.149,-358,-387,415,,2007-01-01 08:16:45.714
13.774322,730,1523,945,1,40,0,-8236.355,8397.778,11344.483,1173.842,,,,,2007-01-01 08:16:45.734
13.794311,837,1652,884,-25,41,23,-8245.074,8400.292,11336.719,1169.654,,,,,2007-01-01 08:16:45.754
13.814331,989,1609,1075,97,64,61,-8272.063,8393.047,11322.539,1168.447,,,,,2007-01-01 08:16:45.774
13.83435,835,1754,868,143,104,22,-8307.055,8381.416,11305.745,1166.303,,,,,2007-01-01 08:16:45.794
13.854339,713,1752,823,160,155,21,-8343.369,8361.853,11293.825,1162.992,-364,-366,391,,2007-01-01 08:16:45.814
13.874359,665,1599,795,206,204,-44,-8400.039,8331.191,11273.585,1171.462,,,,,2007-01-01 08:16:45.834
13.894378,1011,1806,678,355,244,-90,-8462.708,8300.5,11248.287,1181.415,,,,,2007-01-01 08:16:45.854
13.914398,661,1763,750,391,230,-20,-8535.853,8261.633,11220.842,1188.594,,,,,2007-01-01 08:16:45.874
13.934387,665,1612,779,368,272,-64,-8599.747,8225.92,11197.954,1191.573,,,,,2007-01-01 08:16:45.894
13.954406,712,1658,658,328,274,-49,-8665.421,8193.86,11169.845,1200.469,-356,-351,376,,2007-01-01 08:16:45.914
13.974426,684,1549,639,424,225,-21,-8740.544,8161.583,11132.803,1219.661,,,,,2007-01-01 08:16:45.934
13.994445,695,1442,722,466,212,-30,-8809.509,8129.593,11100.255,1233.714,,,,,2007-01-01 08:16:45.954
14.014434,1014,1370,827,404,245,-38,-8873.422,8095.564,11073.972,1235.635,,,,,2007-01-01 08:16:45.974
14.034454,1028,1377,565,305,247,2,-8929.393,8069.43,11047.987,1235.984,,,,,2007-01-01 08:16:45.994
14.054473,907,1377,781,375,223,-52,-8991.399,8044.822,11014.799,1243.056,-349,-349,410,,2007-01-01 08:16:46.014
14.074462,809,1112,765,375,204,1,-9055.579,8016.78,10982.353,1245.422,,,,,2007-01-01 08:16:46.034
14.094482,531,702,673,338,255,30,-9114.64,7991.543,10952.277,1241.63,,,,,2007-01-01 08:16:46.054
14.114501,419,672,783,308,255,19,-9152.958,7976.938,10932.158,1230.92,,,,,2007-01-01 08:16:46.075
14.13449,755,1001,806,170,157,29,-9161.75,7974.512,10928.26,1215.749,,,,,2007-01-01 08:16:46.094
14.15451,905,1214,874,-84,24,113,-9138.256,8005.49,10927.481,1195.824,-360,-292,481,,2007-01-01 08:16:46.115
14.17453,958,1478,631,-197,-152,187,-9088.212,8051.841,10937.906,1170.429,,,,,2007-01-01 08:16:46.135
14.194549,841,1361,649,-354,-154,204,-9029.597,8090.454,10961.279,1138.738,,,,,2007-01-01 08:16:46.155
14.214569,453,1150,964,-431,-113,66,-8971.421,8097.179,11007.131,1108.054,,,,,2007-01-01 08:16:46.175
14.234558,590,1175,895,-441,-48,-62,-8924.975,8092.669,11050.078,1088.453,-360,-292,481,32970,2007-01-01 08:16:46.195
14.254577,1014,1301,771,-282,-10,-65,-8896.292,8101.095,11068.208,1076.321,-339,-190,492,,2007-01-01 08:16:46.215
14.274597,1213,1471,882,-181,-60,10,-8855.445,8132.142,11080.035,1057.176,,,,,2007-01-01 08:16:46.235
14.294586,1313,1637,1035,-287,-162,185,-8802.051,8173.849,11095.19,1021.892,,,,,2007-01-01 08:16:46.255
14.314605,1235,1844,1045,-423,-161,209,-8743.164,8215.865,11114.279,982.279,,,,,2007-01-01 08:16:46.275
14.334625,1159,1960,912,-397,-120,174,-8699.254,8241.965,11131.353,959.898,,,,,2007-01-01 08:16:46.295
14.354614,902,1555,1060,-233,-118,70,-8676.085,8252.499,11142.612,948.383,-340,-215,477,,2007-01-01 08:16:46.315
14.374633,1091,1539,1086,-151,-46,47,-8662.35,8262.117,11147.257,935.52,,,,,2007-01-01 08:16:46.335
14.394653,1251,1631,1168,-87,15,44,-8644.899,8283.224,11146.452,919.762,,,,,2007-01-01 08:16:46.355
14.414672,1197,1603,1159,-125,-77,167,-8619.382,8320.02,11140.86,894.524,,,,,2007-01-01 08:16:46.375
14.434753,862,1436,1155,-156,-117,265,-8592.886,8359.215,11134.147,867.191,,,,,2007-01-01 08:16:46.395
14.454681,744,1741,1132,-185,-58,183,-8558.665,8378.664,11147.36,847.961,-353,-278,481,,2007-01-01 08:16:46.415
14.4747,727,1745,1095,-198,-91,26,-8534.834,8378.599,11165.118,855.138,,,,,2007-01-01 08:16:46.435
14.49472,791,1696,1048,-51,-96,-110,-8532.518,8372.612,11169.344,881.293,,,,,2007-01-01 08:16:46.455
14.514709,1078,1861,916,116,-27,-161,-8526.359,8363.793,11179.277,898.531,,,,,2007-01-01 08:16:46.475
14.534729,1220,1778,780,-65,-25,-102,-8517.527,8346.987,11198.31,901.564,,,,,2007-01-01 08:16:46.495
14.554748,1100,1869,799,-86,28,-159,-8519.924,8327.196,11211.352,899.843,-370,-311,449,,2007-01-01 08:16:46.515
14.574768,1157,1774,515,4,108,-122,-8541.563,8300.419,11214.585,901.796,,,,,2007-01-01 08:16:46.535
14.594757,911,1636,513,135,142,-75,-8578.34,8274.629,11205.889,897.827,,,,,2007-01-01 08:16:46.555
14.614776,960,1643,621,207,225,-65,-8634.538,8254.312,11177.312,902.342,,,,,2007-01-01 08:16:46.575
14.634796,1121,1687,713,372,203,9,-8699.154,8234.384,11140.801,915.208,,,,,2007-01-01 08:16:46.595
14.654785,1156,1830,653,404,160,29,-8769.399,8215.714,11097.83,934.486,-371,-324,418,,2007-01-01 08:16:46.615
14.674804,1346,1785,652,441,182,-7,-8832.127,8198.883,11058.997,951.766,,,,,2007-01-01 08:16:46.635
14.694824,1094,1675,586,381,149,-10,-8887.134,8172.419,11034.346,953.451,,,,,2007-01-01 08:16:46.655
14.714843,760,1416,492,272,233,-20,-8945.251,8131.764,11018.377,942.175,,,,,2007-01-01 08:16:46.675
14.734863,628,1324,662,210,371,-86,-8991.8,8085.971,11015.952,921.33,-371,-324,418,32995,2007-01-01 08:16:46.695
14.754852,683,1301,909,87,347,-83,-9028.095,8055.221,11009.906,907.922,-359,-300,384,,2007-01-01 08:16:46.715
14.774871,717,949,1120,171,196,-12,-9053.793,8048.308,10993.851,907.877,,,,,2007-01-01 08:16:46.735
14.794891,967,974,887,149,19,63,-9046.357,8081.626,10975.072,913.224,,,,,2007-01-01 08:16:46.755
14.81488,944,926,989,-6,-193,165,-9002.609,8130.319,10976.058,901.401,,,,,2007-01-01 08:16:46.775
14.834899,854,863,1034,-329,-265,226,-8934.502,8182.952,10994.54,877.199,,,,,2007-01-01 08:16:46.795
14.854888,872,1219,1093,-428,-247,173,-8853.632,8228.733,11027.294,857.532,-341,-268,412,,2007-01-01 08:16:46.815
14.874938,805,1432,955,-455,-332,80,-8777.488,8270.39,11056.703,860.874,,,,,2007-01-01 08:16:46.835
14.894927,989,1453,753,-248,-396,37,-8757.951,8286.274,11057.083,901.286,,,,,2007-01-01 08:16:46.855
14.914947,695,1208,693,157,-204,-126,-8763.455,8270.632,11061.347,938.361,,,,,2007-01-01 08:16:46.875
14.934967,754,1280,438,28,-26,-210,-8745.469,8252.627,11088.082,949.1,,,,,2007-01-01 08:16:46.895
14.954956,742,1369,609,-166,-10,-181,-8723.017,8243.39,11112.325,952.451,-345,-213,429,,2007-01-01 08:16:46.915
14.974975,706,1416,651,-87,-60,-118,-8722.695,8221.422,11127.052,973.11,,,,,2007-01-01 08:16:46.935
14.994995,938,1662,898,41,-17,-192,-8716.152,8206.112,11140.798,1003.229,,,,,2007-01-01 08:16:46.955
15.014984,1640,2333,1068,-14,-109,-193,-8675.776,8216.273,11162.936,1023.752,,,,,2007-01-01 08:16:46.975
15.035003,2461,3139,1176,-194,-242,-85,-8643.358,8213.549,11188.945,1035.825,,,,,2007-01-01 08:16:46.995
15.055023,1369,2004,1043,-171,-171,-136,-8625.207,8216.136,11201.23,1033.819,-361,-286,480,,2007-01-01 08:16:47.015
15.075042,1099,1462,1019,-72,67,-51,-8610.93,8232.08,11202.269,1014.567,,,,,2007-01-01 08:16:47.035
15.095031,533,1008,807,-90,-48,252,-8629.646,8237.504,11184.222,1010.61,,,,,2007-01-01 08:16:47.055
15.115051,-89,979,1181,317,25,-43,-8693.857,8203.732,11153.872,1068.74,,,,,2007-01-01 08:16:47.075
15.13504,404,1647,1127,645,68,-266,-8737.062,8180.4,11131.017,1131.675,,,,,2007-01-01 08:16:47.095
15.155059,810,1770,1059,274,-114,-96,-8737.481,8190.067,11118.943,1176.332,-347,-284,432,,2007-01-01 08:16:47.115
15.175079,869,1603,989,139,-283,-77,-8714.629,8201.097,11123.096,1228.582,,,,,2007-01-01 08:16:47.135
15.195098,822,1610,616,-52,-278,-153,-8666.525,8203.944,11156.768,1244.433,,,,,2007-01-01 08:16:47.155
15.215118,733,1326,849,-305,-102,-161,-8637.141,8184.465,11193.908,1243.449,,,,,2007-01-01 08:16:47.175
15.235137,796,1255,919,-169,15,-199,-8635.27,8151.615,11218.651,1249.237,-347,-284,432,32986,2007-01-01 08:16:47.195
15.255126,937,1438,560,49,93,-246,-8653.372,8112.715,11230.734,1268.479,-374,-280,490,,2007-01-01 08:16:47.215
15.275146,766,1315,548,150,103,-240,-8670.304,8082.014,11237.045,1292.72,,,,,2007-01-01 08:16:47.235
15.295135,709,1226,900,87,11,-209,-8670.299,8060.623,11250.756,1306.973,,,,,2007-01-01 08:16:47.255
15.315155,583,1239,1075,-21,7,-148,-8655.784,8044.59,11273.119,1309.268,,,,,2007-01-01 08:16:47.275
15.335174,671,1528,716,-171,-6,-79,-8623.757,8054.763,11291.543,1299.266,,,,,2007-01-01 08:16:47.295
15.355194,791,1637,1052,-229,-131,44,-8586.854,8083.501,11299.271,1298.025,-354,-265,475,,2007-01-01 08:16:47.315
15.375183,799,1508,936,-148,-177,70,-8560.207,8100.933,11306.658,1301.018,,,,,2007-01-01 08:16:47.335
15.395202,750,1598,917,-117,-113,22,-8543.729,8113.422,11309.561,1306.272,,,,,2007-01-01 08:16:47.355
15.415222,954,1627,900,-18,-92,-9,-8537.185,8125.772,11304.527,1315.824,,,,,2007-01-01 08:16:47.375
15.435241,816,1512,908,37,-92,54,-8531.774,8135.209,11302.17,1312.854,,,,,2007-01-01 08:16:47.395
15.455261,863,1641,922,-91,-19,73,-8517.733,8148.627,11305.06,1295.824,-337,-273,456,,2007-01-01 08:16:47.415
15.47525,976,1856,962,-116,-1,59,-8505.581,8156.107,11310.154,1284.083,,,,,2007-01-01 08:16:47.435
15.495269,925,1749,1080,-62,-22,35,-8504.361,8154.972,11312.932,1274.861,,,,,2007-01-01 08:16:47.455
15.515289,929,1816,932,-50,51,9,-8507.363,8148.362,11316.449,1265.854,,,,,2007-01-01 08:16:47.475
15.535278,889,1921,887,-20,68,-25,-8511.53,8138.173,11321.461,1258.544,,,,,2007-01-01 08:16:47.495
15.555297,798,1711,1108,34,75,-43,-8526.505,8122.005,11322.395,1253.217,-340,-317,443,,2007-01-01 08:16:47.515
15.575317,958,1763,680,48,127,-23,-8548.761,8109.927,11314.841,1248.022,,,,,2007-01-01 08:16:47.535
15.595336,966,1808,884,117,114,12,-8574.172,8104.415,11300.179,1242.333,,,,,2007-01-01 08:16:47.555
15.615325,1018,1749,971,163,108,52,-8603.36,8100.467,11281.713,1234.103,,,,,2007-01-01 08:16:47.575
15.635345,881,1763,807,133,107,91,-8635.965,8095.211,11261.714,1223.47,,,,,2007-01-01 08:16:47.595
15.655426,894,1781,868,148,149,87,-8667.963,8091.195,11240.942,1214.752,-351,-316,417,,2007-01-01 08:16:47.615
15.675354,650,1641,1023,175,130,53,-8696.688,8078.942,11228.364,1207.298,,,,,2007-01-01 08:16:47.635
15.695373,852,1574,915,147,112,31,-8731.428,8066.252,11210.001,1212.041,,,,,2007-01-01 08:16:47.655
15.715393,1191,1527,702,254,116,2,-8777.039,8059.95,11177.393,1225.604,,,,,2007-01-01 08:16:47.675
15.735412,1036,1396,772,317,52,52,-8820.186,8055.786,11146.008,1229.052,-351,-316,417,32992,2007-01-01 08:16:47.695
15.755401,882,1213,762,238,75,113,-8843.226,8059.79,11126.294,1215.801,-353,-313,415,,2007-01-01 08:16:47.715
15.775421,484,1163,883,37,114,81,-8831.167,8069.85,11130.857,1194.768,,,,,2007-01-01 08:16:47.735
15.79544,795,1319,1015,-188,-22,67,-8800.486,8095.628,11137.154,1188.06,,,,,2007-01-01 08:16:47.755
15.815429,941,1378,951,-98,-208,157,-8782.664,8131.79,11124.17,1194.609,,,,,2007-01-01 08:16:47.775
15.835449,1173,1471,661,-23,-163,137,-8767.669,8163.275,11113.004,1193.938,,,,,2007-01-01 08:16:47.795
15.855468,1112,1573,706,-34,-101,129,-8757.557,8177.983,11111.537,1181.086,-356,-299,433,,2007-01-01 08:16:47.815
15.875488,875,1602,681,-109,-32,70,-8758.63,8169.897,11117.82,1169.911,,,,,2007-01-01 08:16:47.835
15.895477,493,1356,548,-25,106,-66,-8767.853,8152.133,11122.948,1175.979,,,,,2007-01-01 08:16:47.855
15.915496,499,1469,660,51,34,-101,-8766.165,8132.006,11137.616,1189.02,,,,,2007-01-01 08:16:47.875
15.935516,484,1353,608,-14,-59,-132,-8754.761,8134.417,11143.136,1204.728,,,,,2007-01-01 08:16:47.896
15.955535,795,1291,907,-34,-115,-39,-8736.386,8151.999,11142.618,1223.92,-349,-263,442,,2007-01-01 08:16:47.916
15.975524,1200,1874,1194,-22,-201,23,-8696.143,8177.627,11154.329,1232.836,,,,,2007-01-01 08:16:47.936
15.995544,1685,3190,1610,-296,-277,10,-8611.596,8190.701,11209.941,1235.104,,,,,2007-01-01 08:16:47.956
16.015563,1498,3182,1375,-672,-280,-291,-8505.182,8184.065,11294.417,1246.813,,,,,2007-01-01 08:16:47.976
16.035552,676,693,788,-412,-239,-235,-8481.471,8205.155,11292.549,1286.02,,,,,2007-01-01 08:16:47.996
16.055572,48,207,516,247,-241,51,-8500.528,8208.852,11275.153,1289.236,-346,-287,421,,2007-01-01 08:16:48.016
16.075592,171,311,512,11,127,72,-8482.197,8215.345,11287.469,1260.516,,,,,2007-01-01 08:16:48.036
16.095581,258,679,1228,-179,51,83,-8485.49,8229.246,11275.576,1254.107,,,,,2007-01-01 08:16:48.056
16.1156,794,1571,1217,121,-102,147,-8459.159,8281.072,11255.551,1270.615,,,,,2007-01-01 08:16:48.076
16.13562,1339,2534,1221,-127,-469,199,-8374.381,8350.932,11263.976,1299.981,,,,,2007-01-01 08:16:48.096
16.155639,1674,2800,1123,-337,-489,69,-8292.609,8392.322,11292.164,1313.022,-357,-293,420,,2007-01-01 08:16:48.116
16.175628,723,1684,983,-386,-293,-83,-8267.327,8390.164,11311.359,1321.007,,,,,2007-01-01 08:16:48.136
16.195648,937,1351,812,29,82,-182,-8279.303,8369.694,11314.96,1344.793,,,,,2007-01-01 08:16:48.156
16.215667,900,1715,726,111,35,-120,-8288.803,8343.719,11327.003,1346.305,,,,,2007-01-01 08:16:48.176
16.235687,624,1922,980,-80,88,-97,-8300.894,8317.839,11337.408,1344.362,-357,-293,420,32960,2007-01-01 08:16:48.196
16.255706,683,1932,1341,98,109,-125,-8314.07,8302.141,11336.038,1371.27,-361,-343,436,,2007-01-01 08:16:48.216
16.275695,580,1939,1346,124,-86,-94,-8306.894,8302.371,11338.22,1395.109,,,,,2007-01-01 08:16:48.236
16.295715,819,1784,1270,-39,-95,-54,-8286.868,8305.806,11348.655,1408.852,,,,,2007-01-01 08:16:48.256
16.315734,897,1723,960,-37,-103,-56,-8277.328,8316.234,11345.811,1426.214,,,,,2007-01-01 08:16:48.276
16.335723,829,1630,886,38,-118,-3,-8272.922,8326.275,11340.684,1433.953,,,,,2007-01-01 08:16:48.296
16.355743,863,1396,809,27,-53,71,-8288.959,8327.932,11326.527,1443.576,-367,-346,392,,2007-01-01 08:16:48.316
16.375762,886,1449,862,180,32,-25,-8311.734,8322.172,11313.267,1449.807,,,,,2007-01-01 08:16:48.336
16.395782,638,1839,946,152,74,-2,-8334.329,8304.667,11308.488,1457.74,,,,,2007-01-01 08:16:48.356
16.415802,430,1795,811,120,92,-105,-8359.429,8261.741,11318.654,1478.876,,,,,2007-01-01 08:16:48.376
16.435791,308,1849,760,141,128,-310,-8382.453,8201.017,11341.472,1511.367,,,,,2007-01-01 08:16:48.396
16.45581,426,1794,557,166,109,-391,-8416.181,8128.938,11362.141,1557.385,-369,-345,391,,2007-01-01 08:16:48.416
16.47583,379,1598,364,295,184,-471,-8464.51,8045.018,11378.455,1611.194,,,,,2007-01-01 08:16:48.436
16.495819,715,1322,537,338,194,-497,-8510.028,7978.635,11384.761,1656.336,,,,,2007-01-01 08:16:48.456
16.515838,748,1187,609,307,124,-308,-8560.101,7940.241,11369.365,1688.256,,,,,2007-01-01 08:16:48.476
16.535858,912,1240,859,350,102,-80,-8599.462,7939.062,11338.394,1701.991,,,,,2007-01-01 08:16:48.496
16.555847,1166,1254,1128,241,14,100,-8604.465,7972.265,11313.19,1689.18,-363,-327,412,,2007-01-01 08:16:48.516
16.575866,1412,1363,1151,-15,-80,294,-8605.13,8019.059,11282.561,1669.031,,,,,2007-01-01 08:16:48.536
16.595886,1084,1701,1225,16,-149,366,-8589.54,8078.885,11255.955,1640.219,,,,,2007-01-01 08:16:48.556
16.615875,753,1284,1075,-159,-146,348,-8562.878,8128.93,11244.848,1608.244,,,,,2007-01-01 08:16:48.576
16.635894,394,821,855,-136,-77,284,-8546.465,8160.882,11236.159,1594.398,,,,,2007-01-01 08:16:48.596
16.655914,6,421,828,-67,-78,154,-8533.648,8181.586,11232.818,1580.42,-340,-321,425,,2007-01-01 08:16:48.616
16.675903,-273,545,1003,-108,-75,112,-8491.588,8209.398,11246.827,1563.019,,,,,2007-01-01 08:16:48.636
16.695922,-439,1423,1124,-340,-93,47,-8418.396,8218.102,11296.606,1554.201,,,,,2007-01-01 08:16:48.656
16.715942,57,2422,1840,-574,-247,-165,-8290.149,8216.248,11387.245,1591.472,,,,,2007-01-01 08:16:48.676
16.735961,1089,3257,1999,-549,-370,-561,-8166.737,8207.86,11473.466,1652.4,-340,-321,425,32980,2007-01-01 08:16:48.696
16.75595,1042,2663,1296,-523,-549,-496,-8069.123,8225.088,11523.974,1694.295,-349,-297,467,,2007-01-01 08:16:48.716
16.77597,1031,2007,718,-307,-345,-125,-8037.762,8233.579,11538.136,1705.694,,,,,2007-01-01 08:16:48.736
16.795989,852,2284,574,-135,-24,-41,-8015.232,8247.706,11548.186,1675.176,,,,,2007-01-01 08:16:48.756
16.816009,777,1729,944,-175,239,54,-8036.435,8245.932,11538.369,1649.782,,,,,2007-01-01 08:16:48.776
16.836029,837,1407,934,246,85,108,-8094.645,8239.17,11498.644,1676.128,,,,,2007-01-01 08:16:48.796
16.856018,810,1623,991,514,62,32,-8199.585,8218.589,11433.786,1710.427,-330,-356,424,,2007-01-01 08:16:48.816
16.876098,618,1592,853,861,203,63,-8317.136,8197.433,11357.827,1750.011,,,,,2007-01-01 08:16:48.836
16.896057,426,1627,734,686,176,101,-8363.426,8173.673,11339.9,1756.781,,,,,2007-01-01 08:16:48.856
16.916046,368,1792,849,35,165,-72,-8353.723,8163.311,11357.848,1735.05,,,,,2007-01-01 08:16:48.876
16.936065,760,1677,805,-216,52,-14,-8334.114,8164.76,11371.522,1732.961,,,,,2007-01-01 08:16:48.896
16.956085,782,1395,985,-33,-86,-43,-8333.435,8163.446,11370.13,1751.449,-349,-342,383,,2007-01-01 08:16:48.916
16.976104,937,1301,1008,87,-72,-54,-8349.88,8171.674,11349.163,1770.639,,,,,2007-01-01 08:16:48.936
16.996124,903,1251,1084,244,-44,84,-8375.519,8197.432,11310.253,1779.439,,,,,2007-01-01 08:16:48.956
17.016113,734,1128,1013,185,-79,246,-8384.311,8232.509,11278.866,1775.315,,,,,2007-01-01 08:16:48.976
17.036132,577,1238,919,68,-92,225,-8372.958,8260.272,11267.769,1770.396,,,,,2007-01-01 08:16:48.996
17.056152,563,1228,912,-110,-112,80,-8339.767,8284.34,11274.884,1769.295,-347,-343,409,,2007-01-01 08:16:49.016
17.076141,548,1152,1009,-180,-192,66,-8297.581,8317.939,11281.201,1769.735,,,,,2007-01-01 08:16:49.036
17.09616,626,1422,955,-205,-225,98,-8256.966,8352.648,11285.167,1770.938,,,,,2007-01-01 08:16:49.056
17.116149,697,1754,985,-176,-215,84,-8216.732,8384.885,11290.414,1772.284,,,,,2007-01-01 08:16:49.076
17.136169,525,1910,1091,-207,-218,78,-8179.594,8408.277,11298.853,1779.457,,,,,2007-01-01 08:16:49.096
17.156188,620,1832,905,-121,-182,1,-8163.447,8414.562,11301.823,1804.855,-344,-337,417,,2007-01-01 08:16:49.116
17.176208,962,1837,966,11,-147,-86,-8148.312,8423.679,11303.165,1822.229,,,,,2007-01-01 08:16:49.136
17.196228,1221,1922,957,-29,-122,20,-8140.15,8448.697,11290.583,1820.888,,,,,2007-01-01 08:16:49.156
17.216217,1001,1629,821,-22,-109,213,-8150.669,8480.785,11260.667,1809.887,,,,,2007-01-01 08:16:49.176
17.236236,662,1284,961,95,-28,240,-8169.864,8513.22,11222.781,1806.382,-344,-337,417,33007,2007-01-01 08:16:49.196
17.256256,506,1358,1040,215,-66,243,-8189.613,8538.51,11187.926,1813.787,-341,-342,403,,2007-01-01 08:16:49.216
17.276275,684,1584,939,112,-68,175,-8185.575,8558.477,11174.588,1820.124,,,,,2007-01-01 08:16:49.236
17.296264,650,1727,1368,-60,-135,47,-8157.953,8574.938,11181.214,1825.954,,,,,2007-01-01 08:16:49.256
17.316284,797,1742,1097,-94,-153,-14,-8131.571,8590.629,11185.487,1843.628,,,,,2007-01-01 08:16:49.276
17.336303,765,1458,1118,-55,-189,-2,-8109.757,8605.682,11187.319,1858.335,,,,,2007-01-01 08:16:49.296
17.356323,721,1369,971,-60,-159,-1,-8100.623,8614.348,11185.207,1870.689,-337,-330,396,,2007-01-01 08:16:49.316
17.376312,604,1400,988,65,-66,-23,-8100.465,8611.408,11185.395,1883.741,,,,,2007-01-01 08:16:49.336
17.396331,633,1418,1112,27,-29,-54,-8090.915,8613.108,11189.789,1890.902,,,,,2007-01-01 08:16:49.356
17.416351,715,1449,1314,-80,-94,-15,-8060.404,8625.709,11201.95,1891.766,,,,,2007-01-01 08:16:49.376
17.43634,777,1536,1468,-187,-137,-7,-8019.243,8647.544,11213.725,1897.246,,,,,2007-01-01 08:16:49.396
17.456359,629,1551,1264,-181,-237,24,-7976.769,8668.874,11224.871,1912.975,-360,-346,408,,2007-01-01 08:16:49.416
17.476379,680,1485,1122,-93,-230,-64,-7968.798,8669.519,11223.851,1948.921,,,,,2007-01-01 08:16:49.436
17.496368,566,1520,913,187,-153,-121,-7973.797,8663.854,11217.793,1988.148,,,,,2007-01-01 08:16:49.456
17.516387,560,1413,966,80,-127,-66,-7965.908,8666.183,11218.332,2006.5,,,,,2007-01-01 08:16:49.476
17.536407,479,1577,818,-49,-96,-26,-7943.445,8676.32,11224.971,2014.598,,,,,2007-01-01 08:16:49.496
17.556427,421,1494,1233,-117,-123,-24,-7921.183,8682.517,11233.791,2026.359,-361,-355,423,,2007-01-01 08:16:49.516
17.576416,522,1650,1316,-51,-121,-56,-7901.052,8688.953,11238.615,2050.468,,,,,2007-01-01 08:16:49.536
17.596435,644,1738,1473,-5,-155,-72,-7890.669,8685.202,11244.659,2073.08,,,,,2007-01-01 08:16:49.556
17.616455,665,1749,1421,67,-95,-103,-7884.04,8686.413,11242.293,2105.803,,,,,2007-01-01 08:16:49.576
17.636474,608,1781,1175,68,-176,-59,-7873.136,8690.676,11241.725,2131.884,,,,,2007-01-01 08:16:49.596
17.656463,551,1702,1230,54,-105,-59,-7865.202,8690.754,11242.763,2155.246,-373,-355,375,,2007-01-01 08:16:49.616
17.676483,513,1651,1098,-11,-124,-80,-7855.131,8686.396,11250.982,2166.626,,,,,2007-01-01 08:16:49.636
17.696502,703,1541,973,-38,-7,-79,-7852.042,8669.878,11266.883,2161.347,,,,,2007-01-01 08:16:49.657
17.716491,693,1679,878,-54,105,-102,-7855.288,8653.704,11281.407,2138.489,,,,,2007-01-01 08:16:49.676
17.736511,760,1465,1057,-99,170,-21,-7851.192,8648.679,11295.021,2101.68,-373,-355,375,32970,2007-01-01 08:16:49.697
17.75653,681,1804,884,-219,145,83,-7828.496,8666.14,11306.211,2053.696,-372,-339,362,,2007-01-01 08:16:49.717
17.776519,652,2116,963,-279,53,168,-7816.828,8677.935,11311.553,2018.626,,,,,2007-01-01 08:16:49.737
17.796569,588,2093,1048,-124,90,61,-7830.711,8656.386,11320.199,2008.848,,,,,2007-01-01 08:16:49.757
17.816558,497,1735,1045,77,160,-116,-7863.224,8610.561,11330.611,2020.059,,,,,2007-01-01 08:16:49.777
17.836578,590,1562,935,168,184,-229,-7895.346,8569.955,11336.666,2033.419,,,,,2007-01-01 08:16:49.797
17.856597,664,1579,793,180,165,-170,-7927.822,8537.751,11336.774,2041.917,-371,-331,359,,2007-01-01 08:16:49.817
17.876586,607,1342,835,200,174,-95,-7965.821,8511.697,11329.966,2040.585,,,,,2007-01-01 08:16:49.837
17.896606,470,1400,885,158,180,-32,-8004.607,8489.52,11321.467,2028.335,,,,,2007-01-01 08:16:49.857
17.916625,462,1352,864,193,251,-6,-8047.878,8462.658,11311.669,2024.021,,,,,2007-01-01 08:16:49.877
17.936614,442,1303,814,215,202,-46,-8083.798,8433.443,11306.942,2029.221,,,,,2007-01-01 08:16:49.897
17.956634,622,1328,749,176,151,-99,-8121.976,8405.08,11298.811,2039.714,-366,-329,361,,2007-01-01 08:16:49.917
17.976654,750,1216,638,260,142,-92,-8169.656,8375.013,11284.749,2050.79,,,,,2007-01-01 08:16:49.937
17.996673,586,1200,632,276,191,-54,-8213.061,8352.486,11270.613,2047.028,,,,,2007-01-01 08:16:49.957
18.016662,360,1143,746,152,187,14,-8239.987,8338.904,11264.373,2028.455,,,,,2007-01-01 08:16:49.977
18.036682,258,1149,913,49,187,36,-8245.566,8337.248,11266.226,2002.13,,,,,2007-01-01 08:16:49.997
18.056701,403,1253,850,-111,110,92,-8231.05,8344.824,11275.889,1975.721,-367,-342,389,,2007-01-01 08:16:50.017
18.07669,695,1357,1015,-182,19,52,-8214.522,8361.987,11277.939,1960.183,,,,,2007-01-01 08:16:50.037
18.096771,805,1166,927,-47,-54,118,-8218.841,8378.3,11263.259,1956.823,,,,,2007-01-01 08:16:50.057
18.116729,739,993,787,46,-22,123,-8223.804,8399.691,11245.768,1944.833,,,,,2007-01-01 08:16:50.077
18.136749,712,979,879,16,-3,176,-8229.301,8428.844,11223.51,1923.913,,,,,2007-01-01 08:16:50.097
18.156768,723,1111,886,31,0,251,-8232.604,8462.009,11199.976,1901.208,-353,-318,412,,2007-01-01 08:16:50.117
18.176757,583,1505,900,-7,-16,248,-8223.847,8491.704,11187.085,1882.517,,,,,2007-01-01 08:16:50.137
18.196777,777,1936,1152,-134,-83,146,-8192.627,8517.645,11193.141,1865.369,,,,,2007-01-01 08:16:50.157
18.216796,819,2007,1201,-195,-92,84,-8158.235,8539.361,11202.494,1860.663,,,,,2007-01-01 08:16:50.177
18.236785,805,1751,709,-164,-141,43,-8154.774,8536.521,11204.537,1876.5,-353,-318,412,32990,2007-01-01 08:16:50.197
18.256805,608,1814,1035,67,-52,-120,-8164.568,8520.21,11208.17,1886.319,-341,-311,421,,2007-01-01 08:16:50.217
18.276824,615,1983,960,46,110,-99,-8180.378,8495.68,11215.553,1884.577,,,,,2007-01-01 08:16:50.237
18.296844,521,1869,989,72,160,-72,-8206.711,8469.714,11214.497,1893.229,,,,,2007-01-01 08:16:50.257
18.316833,571,1882,1153,153,88,-85,-8234.063,8451.056,11205.079,1913.504,,,,,2007-01-01 08:16:50.277
18.336853,775,1807,872,203,35,-69,-8259.565,8435.807,11193.349,1939.357,,,,,2007-01-01 08:16:50.297
18.356842,921,1865,1230,239,22,-66,-8280.023,8425.302,11183.454,1954.81,-352,-336,423,,2007-01-01 08:16:50.317
18.376892,756,1501,1071,76,0,7,-8292.507,8426.97,11173.328,1952.607,,,,,2007-01-01 08:16:50.337
18.396881,702,1392,1161,73,36,64,-8307.466,8435.194,11155.664,1954.512,,,,,2007-01-01 08:16:50.357
18.4169,733,1504,1104,152,0,69,-8324.723,8435.067,11141.064,1964.88,,,,,2007-01-01 08:16:50.377
18.436889,692,1585,1163,128,-27,15,-8322.474,8437.024,11139.658,1973.956,,,,,2007-01-01 08:16:50.397
18.456909,755,1428,1204,-39,-62,-20,-8296.828,8452.31,11147.66,1971.341,-349,-346,419,,2007-01-01 08:16:50.417
18.476928,609,1387,1149,-153,-121,70,-8264.316,8474.585,11157.256,1957.947,,,,,2007-01-01 08:16:50.437
18.496917,540,1220,1067,-229,-79,62,-8235.535,8492.776,11168.007,1939.01,,,,,2007-01-01 08:16:50.457
18.516967,509,1387,1025,-191,-46,61,-8206.302,8506.355,11181.704,1924.432,,,,,2007-01-01 08:16:50.477
18.536956,370,1496,779,-177,-26,18,-8181.354,8520.823,11189.966,1918.625,,,,,2007-01-01 08:16:50.497
18.556976,816,1554,1142,-116,-88,55,-8165.831,8528.364,11195.87,1916.801,-366,-314,443,,2007-01-01 08:16:50.517
18.576995,854,1909,1076,-139,-45,-18,-8132.948,8530.591,11222.483,1890.892,,,,,2007-01-01 08:16:50.537
18.597015,755,2141,1195,-333,22,-36,-8095.915,8523.224,11259.696,1861.578,,,,,2007-01-01 08:16:50.557
18.617004,888,2050,1037,-326,68,-113,-8071.508,8499.693,11297.306,1847.239,,,,,2007-01-01 08:16:50.577
18.637023,810,2102,1163,-210,88,-168,-8057.6,8482.066,11323.67,1827.45,,,,,2007-01-01 08:16:50.597
18.657043,837,2062,1021,-170,102,-81,-8048.857,8473.481,11338.944,1811.016,-351,-327,410,,2007-01-01 08:16:50.617
18.677032,907,1744,1216,-89,68,-17,-8046.101,8466.766,11347.373,1801.857,,,,,2007-01-01 08:16:50.637
18.697052,890,1535,1188,-52,45,0,-8058.194,8462.25,11344.09,1789.659,,,,,2007-01-01 08:16:50.657
18.717071,691,1609,1053,67,102,44,-8078.265,8461.221,11333.186,1773.048,,,,,2007-01-01 08:16:50.677
18.737091,650,1528,1162,51,136,78,-8099.176,8451.444,11329.288,1749.032,-351,-327,410,32964,2007-01-01 08:16:50.697
18.75708,786,1393,1096,35,216,68,-8127.252,8444.819,11318.59,1719.812,-364,-326,370,,2007-01-01 08:16:50.717
18.777099,1247,1773,1286,64,193,104,-8149.04,8450.987,11304.773,1676.753,,,,,2007-01-01 08:16:50.737
18.797119,1209,1743,934,-40,163,233,-8173.231,8458.896,11289.993,1617.67,,,,,2007-01-01 08:16:50.757
18.817108,1165,1395,1093,-27,332,264,-8204.139,8464.763,11271.25,1560.203,,,,,2007-01-01 08:16:50.777
18.837127,922,1547,712,-19,260,251,-8234.073,8473.931,11250.317,1502.769,,,,,2007-01-01 08:16:50.797
18.857147,808,1501,767,-2,324,233,-8263.35,8466.761,11241.013,1451.228,-345,-324,365,,2007-01-01 08:16:50.817
18.877166,577,1673,896,5,286,120,-8288.397,8445.207,11244.156,1409.024,,,,,2007-01-01 08:16:50.837
18.897155,826,1797,778,-60,277,28,-8301.972,8424.82,11253.961,1372.393,,,,,2007-01-01 08:16:50.857
18.917175,734,2010,1324,-117,217,-5,-8306.718,8410.72,11264.894,1340.079,,,,,2007-01-01 08:16:50.877
18.937194,616,1751,833,-71,157,12,-8311.509,8391.166,11279.353,1311.02,,,,,2007-01-01 08:16:50.897
18.957183,649,1467,892,-116,222,-39,-8325.986,8361.487,11293.278,1288.715,-359,-319,361,,2007-01-01 08:16:50.917
18.977203,915,1428,873,-16,212,-94,-8348.6,8340.329,11292.897,1282.845,,,,,2007-01-01 08:16:50.937
18.997222,1058,1387,838,161,120,-21,-8382.332,8334.738,11271.974,1283.233,,,,,2007-01-01 08:16:50.957
19.017211,1172,1243,861,159,95,112,-8405.947,8341.658,11251.01,1267.68,,,,,2007-01-01 08:16:50.977
19.037231,1048,1087,1043,49,85,139,-8415.601,8355.022,11237.673,1233.45,,,,,2007-01-01 08:16:50.997
19.05725,1100,1029,969,-24,138,180,-8428.049,8372.449,11220.006,1190.376,-364,-314,359,,2007-01-01 08:16:51.017
19.07727,858,1076,558,-28,133,269,-8428.881,8393.742,11208.898,1138.018,,,,,2007-01-01 08:16:51.037
19.09729,658,899,1109,-173,141,254,-8416.055,8415.55,11208.443,1074.6,,,,,2007-01-01 08:16:51.057
19.117309,1049,1089,1024,-281,138,246,-8384.103,8449.039,11212.37,1019.186,,,,,2007-01-01 08:16:51.077
19.137298,909,1346,960,-287,-35,286,-8340.308,8492.259,11215.938,979.271,,,,,2007-01-01 08:16:51.097
19.157287,1134,1361,1153,-339,-140,227,-8295.221,8524.793,11227.431,947.324,-356,-318,383,,2007-01-01 08:16:51.117
19.177307,1170,1468,1078,-308,-4,92,-8258.008,8539.833,11245.428,923.223,,,,,2007-01-01 08:16:51.137
19.197326,1188,1611,1287,-272,-59,60,-8227.951,8538.19,11270.577,899.798,,,,,2007-01-01 08:16:51.157
19.217346,691,1519,1000,-250,46,-45,-8212.767,8526.032,11293.078,871.244,,,,,2007-01-01 08:16:51.177
19.237335,1056,1410,1002,-185,153,-60,-8206.536,8505.903,11314.089,853.933,-356,-318,383,32986,2007-01-01 08:16:51.197
19.257354,1140,1623,872,-131,84,-100,-8199.997,8487.362,11333.916,838.164,-361,-312,372,,2007-01-01 08:16:51.217
19.277374,997,1519,815,-117,113,-82,-8197.572,8472.609,11348.066,819.468,,,,,2007-01-01 08:16:51.237
19.297363,1203,1701,923,-84,121,-46,-8200.447,8458.252,11358.163,798.875,,,,,2007-01-01 08:16:51.257
19.317474,1124,1633,998,-69,132,-54,-8213.961,8435.465,11366.593,780.876,,,,,2007-01-01 08:16:51.277
19.337402,1268,1419,1078,1,179,-61,-8230.227,8414.523,11371.426,765.034,,,,,2007-01-01 08:16:51.297
19.357421,888,1448,1098,2,152,-53,-8234.77,8406.013,11375.781,744.673,-343,-298,356,,2007-01-01 08:16:51.317
19.377441,865,1248,1245,-92,82,6,-8223.357,8403.294,11387.443,722.911,,,,,2007-01-01 08:16:51.337
19.39743,958,1125,1065,-126,71,32,-8213.799,8410.908,11389.382,712.415,,,,,2007-01-01 08:16:51.357
19.417449,750,1203,1177,-22,-26,40,-8208.969,8420.986,11385.624,709.095,,,,,2007-01-01 08:16:51.377
19.437469,833,1318,1136,4,-26,29,-8212.242,8418.802,11384.823,709.996,,,,,2007-01-01 08:16:51.397
19.457489,931,1235,996,46,43,2,-8213.324,8417.605,11384.653,714.394,-350,-295,354,,2007-01-01 08:16:51.417
19.477478,952,1030,982,-8,-54,-21,-8207.366,8419.078,11387.847,714.582,,,,,2007-01-01 08:16:51.437
19.497497,1034,884,1072,-74,-16,-19,-8194.266,8419.082,11397.649,708.574,,,,,2007-01-01 08:16:51.457
19.517517,928,955,906,-78,-7,-24,-8174.175,8421.858,11410.579,699.483,,,,,2007-01-01 08:16:51.478
19.537506,1045,1014,917,-157,-39,-11,-8157.982,8425.345,11419.882,694.709,,,,,2007-01-01 08:16:51.498
19.557525,1120,1066,1003,-94,-51,-12,-8142.1,8429.256,11428.867,685.775,-371,-312,372,,2007-01-01 08:16:51.518
19.577545,1208,1327,1368,-112,-15,10,-8109.2,8444.922,11441.276,675.87,,,,,2007-01-01 08:16:51.538
19.597564,1038,1582,1188,-271,-99,51,-8069.325,8457.169,11460.899,667.469,,,,,2007-01-01 08:16:51.558
19.617584,787,1471,1123,-166,-129,-55,-8068.786,8450.044,11465.02,692.966,,,,,2007-01-01 08:16:51.578
19.637573,716,1516,660,200,-65,-134,-8097.578,8425.585,11460.021,736.261,,,,,2007-01-01 08:16:51.598
19.657592,746,1508,1031,219,-24,-231,-8103.93,8397.109,11474.409,766.969,-367,-313,364,,2007-01-01 08:16:51.618
19.677612,686,1648,910,-19,-6,-259,-8092.749,8354.533,11511.978,786.758,,,,,2007-01-01 08:16:51.638
19.697601,1010,1613,902,-92,31,-360,-8079.323,8305.438,11555.695,803.486,,,,,2007-01-01 08:16:51.658
19.71762,1060,1501,1046,-145,36,-375,-8056.625,8268.045,11597.524,814.295,,,,,2007-01-01 08:16:51.678
19.73764,1247,1627,1104,-208,-41,-248,-8022.321,8253.722,11631.313,816.343,-367,-313,364,32995,2007-01-01 08:16:51.698
19.757629,1373,1598,1099,-225,-58,-128,-7999.317,8246.523,11652.662,810.356,-350,-310,338,,2007-01-01 08:16:51.718
19.777648,1385,1434,1179,-106,-9,-66,-8002.386,8249.467,11649.097,801.302,,,,,2007-01-01 08:16:51.738
19.797668,1262,1447,1210,41,29,83,-8017.86,8265.422,11627.986,788.724,,,,,2007-01-01 08:16:51.758
19.817687,1157,1459,1341,86,28,182,-8031.251,8282.283,11607.753,773.483,,,,,2007-01-01 08:16:51.778
19.837677,1060,1601,1260,62,56,136,-8047.201,8288.932,11592.655,762.845,,,,,2007-01-01 08:16:51.798
19.857696,1201,1572,1211,97,76,62,-8069.467,8285.71,11579.608,760.811,-346,-299,339,,2007-01-01 08:16:51.818
19.877716,985,1370,1210,134,52,32,-8085.461,8282.752,11570.615,760.018,,,,,2007-01-01 08:16:51.838
19.897735,710,1461,771,64,43,12,-8098.113,8269.839,11571.173,757.437,,,,,2007-01-01 08:16:51.858
19.917724,421,1390,836,45,75,-99,-8114.865,8239.796,11579.983,770.807,,,,,2007-01-01 08:16:51.878
19.937744,724,1053,842,144,112,-243,-8143.952,8192.284,11591.045,803.511,,,,,2007-01-01 08:16:51.898
19.957763,595,1058,805,224,61,-307,-8169.271,8149.788,11601.102,832.961,-356,-297,337,,2007-01-01 08:16:51.918
19.977752,835,1236,920,90,47,-280,-8163.904,8118.944,11625.251,849.943,,,,,2007-01-01 08:16:51.938
19.997772,1118,1281,910,-57,23,-208,-8155.19,8100.728,11643.32,860.015,,,,,2007-01-01 08:16:51.958
20.017791,1126,1128,1053,-39,-27,-156,-8156.382,8088.853,11649.988,870.113,,,,,2007-01-01 08:16:51.978
20.037811,1346,1276,903,16,-7,-104,-8152.084,8089.678,11652.413,870.248,,,,,2007-01-01 08:16:51.998
20.0578,1040,1164,830,-36,-12,28,-8144.603,8098.378,11652.552,857.42,-353,-299,351,,2007-01-01 08:16:52.018
20.07785,782,1008,1026,-88,-28,76,-8139.609,8109.135,11649.523,844.247,,,,,2007-01-01 08:16:52.038
20.097839,1128,1448,544,-24,13,61,-8133.955,8121.223,11645.077,843.87,,,,,2007-01-01 08:16:52.058
20.117858,672,1209,894,34,-105,45,-8125.897,8130.311,11643.208,859.641,,,,,2007-01-01 08:16:52.078
20.137847,538,1280,962,-12,-159,-26,-8110.53,8135.969,11648.066,885.036,,,,,2007-01-01 08:16:52.098
20.157867,625,1381,1111,-11,-178,-103,-8089.361,8136.95,11659.591,917.416,-356,-313,353,,2007-01-01 08:16:52.118
20.177886,845,1320,1192,0,-152,-122,-8073.606,8131.595,11671.263,954.508,,,,,2007-01-01 08:16:52.138
20.197875,993,1431,1166,20,-196,-169,-8061.14,8128.083,11679.295,990.846,,,,,2007-01-01 08:16:52.158
20.217895,1028,1445,1208,56,-155,-154,-8048.472,8125.906,11687.02,1020.169,,,,,2007-01-01 08:16:52.178
20.237915,824,1318,1119,70,-175,-134,-8042.575,8120.285,11691.268,1061.908,-356,-313,353,32970,2007-01-01 08:16:52.198
20.257934,796,1371,1039,103,-160,-172,-8040.413,8107.182,11698.436,1098.81,-357,-307,370,,2007-01-01 08:16:52.218
20.277923,768,1639,1111,57,-90,-178,-8036.076,8090.105,11710.841,1123.974,,,,,2007-01-01 08:16:52.238
20.297943,793,1601,1092,-3,-41,-179,-8025.985,8073.218,11726.898,1149.788,,,,,2007-01-01 08:16:52.258
20.317932,822,1668,1220,-28,-106,-186,-8000.571,8062.407,11749.382,1172.993,,,,,2007-01-01 08:16:52.278
20.337982,644,1598,1130,-110,-146,-183,-7970.524,8054.62,11772.528,1198.69,,,,,2007-01-01 08:16:52.298
20.357971,437,1555,1154,-115,-154,-174,-7938.846,8044.037,11798.549,1223.867,-373,-307,345,,2007-01-01 08:16:52.318
20.37799,832,1633,1205,-128,-136,-217,-7915.595,8018.503,11828.917,1248.644,,,,,2007-01-01 08:16:52.338
20.39801,746,1618,1231,-75,-50,-306,-7895.955,7991.022,11857.787,1275.06,,,,,2007-01-01 08:16:52.358
20.417999,788,1304,1178,-69,-84,-255,-7884.187,7965.865,11880.164,1296.807,,,,,2007-01-01 08:16:52.378
20.438018,958,1291,1164,-14,-23,-211,-7889.756,7948.643,11886.313,1312.179,,,,,2007-01-01 08:16:52.398
20.458038,974,1137,1393,96,16,-117,-7906.841,7930.446,11886.146,1320.927,-384,-299,346,,2007-01-01 08:16:52.418
20.478027,920,1238,1201,113,73,-72,-7917.404,7921.761,11884.934,1320.673,,,,,2007-01-01 08:16:52.438
20.498077,848,1417,1153,19,40,-19,-7913.662,7930.949,11881.398,1319.776,,,,,2007-01-01 08:16:52.458
20.518066,647,1451,916,-45,-81,53,-7893.979,7942.595,11886.476,1321.893,,,,,2007-01-01 08:16:52.478
20.538146,553,1468,1276,-97,-110,-4,-7876.243,7940.426,11899.079,1327.317,,,,,2007-01-01 08:16:52.498
20.558105,500,1628,994,-62,-42,-109,-7857.656,7926.76,11919.347,1337.28,-383,-314,350,,2007-01-01 08:16:52.518
20.578094,594,1422,1291,-101,-29,-166,-7842.567,7902.464,11943.937,1350.192,,,,,2007-01-01 08:16:52.538
20.598114,514,1592,1013,-100,-26,-221,-7822.571,7875.406,11973.106,1365.838,,,,,2007-01-01 08:16:52.558
20.618133,494,1532,901,-119,-46,-262,-7795.889,7845.284,12007.42,1390.298,,,,,2007-01-01 08:16:52.578
20.638122,541,1552,840,-143,-90,-302,-7757.94,7819.549,12046.971,1405.326,,,,,2007-01-01 08:16:52.598
20.658142,682,1582,1130,-237,-67,-242,-7727.037,7801.156,12078.431,1407.76,-376,-312,352,,2007-01-01 08:16:52.618
20.678161,312,1618,1362,-182,5,-169,-7713.727,7777.054,12101.996,1411.732,,,,,2007-01-01 08:16:52.638
20.69815,601,1728,1182,-55,39,-188,-7715.991,7740.885,12122.019,1426.273,,,,,2007-01-01 08:16:52.658
20.71817,792,1606,1218,53,19,-225,-7727.936,7714.325,12129.108,1445.114,,,,,2007-01-01 08:16:52.678
20.738189,834,1492,1239,98,18,-153,-7750.172,7693.419,12127.077,1454.501,-376,-312,352,32974,2007-01-01 08:16:52.698
20.758178,885,1405,1134,161,96,-70,-7774.397,7678.064,12121.259,1454.859,-365,-299,348,,2007-01-01 08:16:52.718
20.778198,835,1339,1161,94,61,-20,-7784.895,7676.056,12116.753,1446.824,,,,,2007-01-01 08:16:52.738
20.798217,785,1341,1033,29,70,20,-7790.111,7678.691,12112.573,1439.744,,,,,2007-01-01 08:16:52.758
20.818237,655,1492,952,10,23,55,-7797.134,7671.63,12113.183,1434.226,,,,,2007-01-01 08:16:52.778
20.838256,568,1436,972,35,52,-54,-7799.752,7658.882,12119.334,1436.165,,,,,2007-01-01 08:16:52.798
20.858245,395,1544,1052,-14,13,-102,-7797.632,7640.868,12131.721,1439.046,-365,-304,358,,2007-01-01 08:16:52.818
20.878265,453,1455,1007,-26,36,-115,-7796.804,7621.05,12144.334,1442.231,,,,,2007-01-01 08:16:52.838
20.898284,551,1456,796,0,40,-123,-7804.905,7597.615,12153.135,1447.908,,,,,2007-01-01 08:16:52.858
20.918304,555,1449,920,61,76,-163,-7818.161,7563.717,12164.63,1457.309,,,,,2007-01-01 08:16:52.878
20.938293,158,1352,960,68,84,-211,-7832.931,7522.039,12179.498,1469.479,,,,,2007-01-01 08:16:52.898
20.958312,402,1516,913,59,104,-250,-7838.05,7480.326,12199.844,1486.242,-367,-313,355,,2007-01-01 08:16:52.918
20.978332,491,1367,928,25,68,-269,-7838.612,7439.154,12222.533,1503.415,,,,,2007-01-01 08:16:52.938
20.998321,418,1432,943,4,29,-269,-7837.26,7405.779,12241.812,1518.31,,,,,2007-01-01 08:16:52.958
21.018341,712,1322,922,-19,40,-202,-7843.516,7375.861,12254.879,1526.209,,,,,2007-01-01 08:16:52.978
21.03836,1035,1422,1031,59,92,-167,-7855.881,7344.056,12265.948,1527.059,,,,,2007-01-01 08:16:52.998
21.05838,747,1505,787,43,104,-144,-7871.024,7322.054,12270.495,1518.185,-379,-327,355,,2007-01-01 08:16:53.018
21.078369,808,1470,1093,23,130,-78,-7886.747,7305.854,12271.515,1506.347,,,,,2007-01-01 08:16:53.038
21.098388,518,1377,1081,53,130,-23,-7905.679,7280.26,12275.807,1496.015,,,,,2007-01-01 08:16:53.058
21.118408,268,1395,982,49,163,-104,-7922.821,7247.036,12285.545,1486.676,,,,,2007-01-01 08:16:53.078
21.138397,320,1453,1030,33,197,-170,-7929.73,7216.76,12299.58,1481.053,,,,,2007-01-01 08:16:53.098
21.158416,511,1460,978,-34,106,-110,-7926.556,7191.465,12316.31,1482.048,-369,-347,375,,2007-01-01 08:16:53.118
21.178436,377,1557,1122,-38,63,-156,-7920.263,7171.808,12331.867,1481.586,,,,,2007-01-01 08:16:53.138
21.198425,600,1585,1164,-65,71,-130,-7916.735,7154.509,12344.797,1476.384,,,,,2007-01-01 08:16:53.158
21.218444,628,1618,1058,-35,76,-70,-7911.244,7143.267,12355.319,1472.235,,,,,2007-01-01 08:16:53.178
21.238494,495,1447,1138,-68,10,-42,-7906.041,7138.596,12361.865,1467.884,-369,-347,375,32984,2007-01-01 08:16:53.198
21.258483,603,1309,1043,-33,31,-44,-7912.31,7130.661,12362.543,1466.964,-361,-338,384,,2007-01-01 08:16:53.218
21.278472,691,1576,981,45,64,-18,-7912.802,7126.25,12365.674,1459.338,,,,,2007-01-01 08:16:53.238
21.298522,641,1437,1097,-46,39,1,-7913.84,7124.71,12367.433,1446.261,,,,,2007-01-01 08:16:53.259
21.318511,793,1362,1126,-8,62,12,-7917.73,7130.635,12363.331,1430.755,,,,,2007-01-01 08:16:53.279
21.338531,886,1449,1024,-36,37,129,-7914.855,7144.488,12359.528,1410.275,,,,,2007-01-01 08:16:53.299
21.358551,617,1470,1171,-69,22,117,-7910.908,7159.232,12355.856,1389.663,-358,-346,387,,2007-01-01 08:16:53.319
21.37854,554,1496,1104,-43,22,83,-7906.785,7169.452,12353.928,1377.535,,,,,2007-01-01 08:16:53.339
21.398559,474,1592,1022,-49,12,78,-7900.458,7173.588,12356.297,1371.039,,,,,2007-01-01 08:16:53.359
21.418579,569,1551,1098,-58,24,14,-7890.559,7175.489,12362.352,1363.491,,,,,2007-01-01 08:16:53.379
21.438598,610,1563,1082,-81,47,-26,-7883.721,7173.033,12369.772,1348.596,,,,,2007-01-01 08:16:53.399
21.458587,914,1813,904,-136,31,80,-7870.081,7183.598,12374.859,1325.153,-351,-358,383,,2007-01-01 08:16:53.419
21.478607,484,1562,1006,-135,36,101,-7859.451,7198.212,12375.854,1299.399,,,,,2007-01-01 08:16:53.439
21.498626,1034,1678,973,-115,52,117,-7857.827,7214.177,12370.261,1273.68,,,,,2007-01-01 08:16:53.459
21.518615,1124,1676,783,-29,39,184,-7866.495,7223.53,12362.008,1247.022,,,,,2007-01-01 08:16:53.479
21.538635,807,1655,1032,-26,66,115,-7876.893,7228.9,12354.879,1220.635,,,,,2007-01-01 08:16:53.499
21.558654,1026,1800,942,5,146,80,-7892.798,7230.711,12346.207,1194.646,-358,-337,367,,2007-01-01 08:16:53.519
21.578674,1020,1799,1165,44,119,129,-7903.368,7240.45,12336.023,1170.733,,,,,2007-01-01 08:16:53.539
21.598663,887,1642,1178,-4,55,127,-7916.198,7247.522,12325.687,1148.962,,,,,2007-01-01 08:16:53.559
21.618682,543,1483,1063,9,114,85,-7922.596,7247.838,12322.718,1134.622,,,,,2007-01-01 08:16:53.579
21.638702,508,1423,1134,19,48,26,-7922.939,7251.517,12320.064,1137.535,,,,,2007-01-01 08:16:53.599
21.658691,456,1465,1198,19,-62,19,-7916.569,7259.137,12318.733,1147.656,-346,-334,355,,2007-01-01 08:16:53.619
21.67871,647,1545,1348,-3,-82,-9,-7912.452,7260.543,12318.657,1167.789,,,,,2007-01-01 08:16:53.639
21.69873,903,1410,1237,82,-89,-73,-7913.788,7254.68,12318.588,1195.567,,,,,2007-01-01 08:16:53.659
21.71875,1011,1226,1027,117,-110,-107,-7919.734,7251.551,12314.998,1212.051,,,,,2007-01-01 08:16:53.679
21.738739,710,1291,1150,40,-40,-18,-7902.134,7269.299,12315.679,1213.686,-346,-334,355,32970,2007-01-01 08:16:53.699
21.758819,653,1309,1004,-97,-98,61,-7894.031,7269.6,12320.703,1213.628,-347,-336,368,,2007-01-01 08:16:53.719
21.778778,773,1303,806,-12,-1,-48,-7888.856,7267.008,12326.109,1207.896,,,,,2007-01-01 08:16:53.739
21.798797,671,1266,687,-72,22,-7,-7886.01,7269.173,12327.403,1200.227,,,,,2007-01-01 08:16:53.759
21.818786,718,1274,932,-58,-1,45,-7874.271,7273.569,12333.289,1190.146,,,,,2007-01-01 08:16:53.779
21.838806,500,1522,954,-106,-12,4,-7860.582,7271.692,12343.792,1183.2,,,,,2007-01-01 08:16:53.799
21.858795,536,1901,1105,-104,-3,-52,-7838.239,7270.67,12357.613,1193.395,-363,-339,367,,2007-01-01 08:16:53.819
21.878814,579,2046,1417,-117,-130,-92,-7804.497,7269.301,12376.641,1225.262,,,,,2007-01-01 08:16:53.839
21.898834,412,1794,1449,-122,-247,-177,-7767.184,7255.995,12403.661,1267.286,,,,,2007-01-01 08:16:53.859
21.918853,484,1586,1303,-119,-198,-288,-7741.189,7231.384,12429.99,1308.385,,,,,2007-01-01 08:16:53.879
21.938842,653,1544,1251,-40,-175,-261,-7731.354,7203.397,12449.003,1339.772,,,,,2007-01-01 08:16:53.899
21.958892,714,1327,1324,31,-10,-256,-7749.739,7168.724,12455.162,1362.09,-373,-321,359,,2007-01-01 08:16:53.919
21.978881,836,1394,1297,184,47,-199,-7766.331,7150.57,12453.177,1381.032,,,,,2007-01-01 08:16:53.939
21.998901,707,1402,1358,93,-24,-91,-7766.201,7140.962,12458.121,1386.878,,,,,2007-01-01 08:16:53.959
22.01892,762,1490,1260,-33,5,-71,-7759.787,7134.875,12465.649,1386.46,,,,,2007-01-01 08:16:53.979
22.038909,591,1669,1468,-62,21,-52,-7750.192,7127.321,12476.84,1378.301,,,,,2007-01-01 08:16:53.999
22.058929,477,1645,1188,-64,49,-56,-7738.631,7109.315,12495.376,1368.298,-361,-326,352,,2007-01-01 08:16:54.019
22.078948,757,1602,1061,-111,104,-133,-7743.269,7073.452,12513.486,1362.414,,,,,2007-01-01 08:16:54.039
22.098968,784,1509,1183,34,172,-217,-7763.583,7032.58,12524.492,1357.253,,,,,2007-01-01 08:16:54.059
22.118957,605,1675,1025,55,174,-145,-7777.947,7007.884,12530.96,1342.969,,,,,2007-01-01 08:16:54.079
22.138977,686,1741,938,-26,167,-67,-7783.056,6988.614,12540.354,1326,,,,,2007-01-01 08:16:54.099
22.158996,551,1626,1179,-37,123,-61,-7785.047,6971.215,12550.088,1313.744,-360,-327,351,,2007-01-01 08:16:54.119
22.178985,420,1665,1115,-71,89,-61,-7767.266,6960.159,12569.214,1294.626,,,,,2007-01-01 08:16:54.139
22.199005,607,1819,974,-214,98,-58,-7742.47,6943.305,12596.551,1267.676,,,,,2007-01-01 08:16:54.159
22.219024,547,1910,1058,-230,144,-91,-7732.825,6922.939,12616.256,1241.706,,,,,2007-01-01 08:16:54.179
22.239044,504,1827,1107,-111,160,-59,-7748.108,6895.651,12623.796,1221.485,-360,-327,351,33007,2007-01-01 08:16:54.199
22.259033,776,1679,971,74,221,-83,-7789.867,6856.813,12619.775,1216.062,-346,-318,346,,2007-01-01 08:16:54.219
22.279052,599,1627,1068,260,242,-151,-7847.634,6810.455,12608.971,1217.215,,,,,2007-01-01 08:16:54.239
22.299072,532,1746,1164,309,268,-173,-7904.626,6752.299,12604.768,1215.975,,,,,2007-01-01 08:16:54.259
22.319061,312,1731,1065,262,298,-232,-7961.582,6686.378,12604.487,1211.565,,,,,2007-01-01 08:16:54.279
22.33908,660,1714,848,235,368,-277,-8010.243,6620.939,12608.875,1204.517,,,,,2007-01-01 08:16:54.299
22.3591,766,1357,784,215,318,-234,-8059.485,6558.339,12611.64,1189.477,-352,-312,338,,2007-01-01 08:16:54.319
22.379119,882,1367,853,206,378,-192,-8123.131,6513.575,12596.376,1163.965,,,,,2007-01-01 08:16:54.339
22.399108,885,1244,773,319,369,-15,-8209.182,6486.893,12557.165,1132.514,,,,,2007-01-01 08:16:54.359
22.419128,929,1240,676,450,409,129,-8283.162,6469.911,12522.08,1078.161,,,,,2007-01-01 08:16:54.379
22.439147,825,1285,1049,214,421,211,-8332.96,6465.941,12496.288,1015.672,,,,,2007-01-01 08:16:54.399
22.459167,780,1317,985,113,349,208,-8360.529,6466.183,12482.275,958.27,-349,-330,355,,2007-01-01 08:16:54.419
22.479156,636,1157,924,27,288,167,-8372.393,6465.989,12477.931,911.412,,,,,2007-01-01 08:16:54.439
22.499176,565,1112,1019,-69,180,145,-8368.547,6470.5,12480.739,875.574,,,,,2007-01-01 08:16:54.459
22.519195,549,1065,944,-105,107,95,-8354.509,6484.415,12485.154,843.153,,,,,2007-01-01 08:16:54.479
22.539215,436,1069,811,-123,89,111,-8334.092,6490.672,12497.574,812.504,,,,,2007-01-01 08:16:54.499
22.559204,337,1088,948,-219,79,62,-8305.506,6489.019,12519.405,781.749,-340,-324,368,,2007-01-01 08:16:54.519
22.579193,377,1260,897,-276,50,26,-8273.347,6489.17,12541.97,759.481,,,,,2007-01-01 08:16:54.539
22.599243,530,1370,857,-234,27,2,-8241.516,6496.47,12559.979,745.42,,,,,2007-01-01 08:16:54.559
22.619232,707,1396,948,-206,-40,45,-8212.417,6512.679,12571.61,728.872,,,,,2007-01-01 08:16:54.579
22.639251,942,1552,887,-210,-5,93,-8173.144,6537.728,12586.564,686.786,,,,,2007-01-01 08:16:54.599
22.65924,1250,1861,900,-335,84,198,-8134.027,6566.995,12599.784,626.934,-328,-324,391,,2007-01-01 08:16:54.619
22.67929,1149,1526,915,-352,97,273,-8122.329,6582.574,12602.098,565.71,,,,,2007-01-01 08:16:54.639
22.699279,1109,1439,993,-157,189,222,-8126.262,6598.98,12593.245,512.767,,,,,2007-01-01 08:16:54.659
22.719299,1092,1582,997,-18,189,200,-8143.544,6615.627,12575.267,462.872,,,,,2007-01-01 08:16:54.679
22.739318,860,1426,1202,47,230,263,-8171.921,6639.919,12545.469,421.708,-328,-324,391,33001,2007-01-01 08:16:54.699
22.759307,1017,1521,1258,133,184,273,-8189.844,6670.542,12518.918,377.432,-320,-332,371,,2007-01-01 08:16:54.719
22.779327,1086,1757,1271,25,154,299,-8180.694,6713.535,12503.104,335.404,,,,,2007-01-01 08:16:54.739
22.799346,944,1671,1281,-136,-10,347,-8167.301,6746.391,12494.932,305.762,,,,,2007-01-01 08:16:54.759
22.819366,692,1532,1286,-78,-20,190,-8164.213,6755.962,12492.243,286.186,,,,,2007-01-01 08:16:54.779
22.839385,1023,1578,1217,-20,103,-1,-8149.123,6761.473,12499.742,257.226,,,,,2007-01-01 08:16:54.799
22.859375,601,1567,1056,-196,104,138,-8128.127,6780.927,12503.623,217.754,-330,-342,360,,2007-01-01 08:16:54.819
22.879394,915,1534,806,-170,66,180,-8112.049,6799.608,12504.438,185.598,,,,,2007-01-01 08:16:54.839
22.899414,702,1402,1108,-135,51,146,-8105.584,6816.685,12499.72,157.244,,,,,2007-01-01 08:16:54.859
22.919403,1229,1521,1178,-45,48,167,-8104.393,6831.816,12492.547,129.591,,,,,2007-01-01 08:16:54.879
22.939422,1138,1564,1054,-45,95,149,-8098.311,6849.331,12487.198,96.605,,,,,2007-01-01 08:16:54.899
22.959442,1242,1571,994,-128,72,168,-8088.48,6866.392,12484.425,60.895,-332,-327,353,,2007-01-01 08:16:54.919
22.979492,1014,1342,1087,-106,77,178,-8077.253,6884.717,12481.715,29.333,,,,,2007-01-01 08:16:54.939
22.99945,856,1353,876,-123,34,162,-8077.722,6893.388,12476.66,3.375,,,,,2007-01-01 08:16:54.959
23.01947,976,1313,678,-3,98,77,-8094.588,6895.593,12464.496,-14.19,,,,,2007-01-01 08:16:54.979
