;Title, http://www.gcdataconcepts.com, HAM-IMU, MPU-9250
;Version, 1191, Build date, Nov 15 2016,  SN:CCDC3016FE411C6
;Start_time, 2007-01-01, 04:21:35.570
;Temperature, -999.00, deg C,  Vbat, 4168, mv
;MPU SR, 200,Hz,  Accel sens, 2048,counts/g, Gyro sens, 16,counts/dps,  Mag SR, 10,Hz,  Mag sens, 1666,counts/mT
;Deadband, 0, counts
;DeadbandTimeout, 5,sec
;Time, Ax, Ay, Az, Gx, Gy, Gz, Qw, Qx, Qy, Qz, Mx, My, Mz, T
0.013214,-11,10,-2235,-5,6,-3,16378.372,376.201,-159.919,-131.372,63,-1301,-278,31761
0.033233,-6,0,-2235,-3,8,-3,16378.343,377.120,-160.339,-131.851
0.053253,-23,9,-2244,-4,8,-4,16378.321,377.810,-160.608,-132.285,88,-1376,-213
0.073242,3,9,-2245,-5,7,-2,16378.296,378.643,-160.939,-132.591
0.093262,-15,9,-2238,-3,7,-2,16378.270,379.529,-161.184,-132.981
0.113281,-16,2,-2234,-4,6,-4,16378.242,380.375,-161.659,-133.506
0.133270,-9,2,-2240,-5,7,-4,16378.217,381.194,-161.862,-133.895
0.153290,-4,-7,-2248,-3,6,-3,16378.186,382.107,-162.327,-134.506,89,-1410,-177
0.173309,-4,6,-2253,-6,7,-3,16378.162,382.901,-162.717,-134.723
0.193298,-1,6,-2230,-4,8,-3,16378.136,383.666,-163.117,-135.205
0.213318,-6,3,-2261,-4,7,-2,16378.112,384.401,-163.349,-135.769
0.233337,-15,3,-2230,-4,7,-5,16378.084,385.244,-163.793,-136.253
0.253357,-5,-8,-2251,-6,7,-4,16378.054,386.041,-164.319,-136.911,89,-1410,-171,31790
0.273346,-18,-4,-2240,-4,7,-5,16378.026,386.947,-164.561,-137.431
0.293365,-2,9,-2244,-4,7,-5,16378.001,387.733,-164.907,-137.821
0.313385,2,11,-2259,-4,6,-2,16377.973,388.551,-165.317,-138.391
0.333374,4,11,-2238,-6,6,-5,16377.942,389.469,-165.653,-139.042
0.353393,-25,10,-2256,-4,10,-4,16377.916,390.247,-166.048,-139.481,100,-1414,-167
0.373382,-2,12,-2247,-5,8,-4,16377.889,390.982,-166.448,-140.050
0.393432,-7,3,-2251,-4,6,-3,16377.859,391.858,-166.883,-140.620
0.413421,12,9,-2263,-7,10,-5,16377.834,392.609,-167.239,-141.011
0.433441,0,12,-2261,-4,6,-3,16377.806,393.513,-167.563,-141.312
0.453430,-16,-4,-2260,-5,10,-2,16377.779,394.240,-168.139,-141.794,106,-1396,-161
0.473450,0,18,-2235,-6,7,-3,16377.753,395.011,-168.432,-142.231
0.493469,24,13,-2269,-6,7,-4,16377.745,394.877,-168.954,-142.962
0.513489,-39,17,-2256,-5,8,-5,16377.715,395.744,-169.522,-143.356
0.533478,-19,-8,-2234,-7,10,-3,16377.685,396.576,-170.111,-143.797
0.553497,0,2,-2252,-6,7,-5,16377.653,397.487,-170.546,-144.409,119,-1402,-153
0.573517,-9,2,-2242,-6,8,-4,16377.626,398.246,-170.985,-144.804
0.593536,-3,1,-2274,-4,6,-4,16377.602,398.881,-171.325,-145.331
0.613525,-8,4,-2231,-5,7,-3,16377.576,399.656,-171.714,-145.767
0.633545,11,5,-2234,-4,7,-3,16377.545,400.560,-172.117,-146.247
0.653564,-12,0,-2252,-4,7,-4,16377.523,401.168,-172.435,-146.640,126,-1407,-158
0.673584,-15,9,-2250,-5,7,-3,16377.495,401.909,-172.893,-147.209
0.693573,15,0,-2225,-5,7,-4,16377.467,402.733,-173.198,-147.729
0.713592,3,13,-2208,-5,10,-5,16377.440,403.602,-173.379,-148.115
0.733612,-5,-3,-2288,-4,8,-3,16377.404,404.748,-173.706,-148.633
0.753601,0,32,-2235,-4,8,-4,16377.379,405.438,-174.137,-148.983,122,-1370,-164,31798
0.773620,1,12,-2222,-5,6,-2,16377.348,406.240,-174.611,-149.638
0.793640,14,-10,-2258,-5,8,-5,16377.324,406.882,-174.834,-150.247
0.813629,-6,-1,-2249,-5,7,-6,16377.296,407.652,-175.292,-150.687
0.833649,-15,4,-2243,-5,8,-4,16377.273,408.188,-175.761,-151.172
0.853668,10,11,-2242,-5,6,-5,16377.250,408.905,-175.873,-151.606,127,-1389,-146
0.873688,-17,13,-2261,-2,7,-4,16377.222,409.634,-176.156,-152.302
0.893677,-24,-13,-2225,-5,7,-4,16377.198,410.344,-176.425,-152.650
0.913696,2,-7,-2248,-4,7,-3,16377.165,411.240,-177.000,-153.178
0.933716,-22,-3,-2241,-8,10,-3,16377.139,411.870,-177.390,-153.837
0.953796,-1,-7,-2272,-4,7,-5,16377.106,412.762,-177.794,-154.451,121,-1390,-151
0.973724,13,10,-2236,-7,7,-4,16377.074,413.610,-178.323,-154.935
0.993744,1,9,-2244,-6,7,-4,16377.049,414.364,-178.705,-155.196
1.013763,5,-6,-2263,-5,7,-4,16377.022,414.968,-179.015,-156.069
1.033752,-5,12,-2230,-5,5,-6,16376.997,415.609,-179.324,-156.594
1.053772,-11,17,-2240,-5,7,-4,16376.969,416.416,-179.590,-157.025,120,-1384,-155
1.073761,-5,5,-2241,-3,7,-4,16376.941,417.194,-179.994,-157.463
1.093780,1,-15,-2260,-5,8,-3,16376.914,417.828,-180.353,-158.162
1.113800,-2,-1,-2253,-4,7,-4,16376.886,418.667,-180.636,-158.555
1.133789,-10,8,-2244,-4,8,-3,16376.861,419.374,-180.931,-158.861
1.153808,10,15,-2220,-5,6,-3,16376.833,420.030,-181.371,-159.563,120,-1387,-164
1.173828,-2,7,-2233,-6,7,-6,16376.802,420.832,-181.782,-160.127
1.193847,-1,22,-2234,-6,10,-4,16376.771,421.691,-182.224,-160.608
1.213867,-1,6,-2253,-5,8,-3,16376.751,422.221,-182.391,-160.997
1.233917,-7,1,-2268,-2,7,-3,16376.724,423.049,-182.527,-161.426
1.253876,-29,0,-2238,-3,8,-4,16376.703,423.630,-182.794,-161.731,128,-1381,-153,31798
1.273895,4,-2,-2257,-5,6,-2,16376.674,424.439,-183.277,-161.996
1.293884,-10,-7,-2242,-4,7,-3,16376.644,425.190,-183.773,-162.481
1.313904,9,10,-2228,-5,7,-4,16376.612,426.093,-184.169,-162.961
1.333893,13,10,-2223,-6,8,-5,16376.588,426.797,-184.269,-163.392
1.353912,-14,14,-2245,-3,10,-3,16376.568,427.235,-184.690,-163.747
1.373932,-8,-5,-2243,-5,6,-4,16376.540,428.039,-184.969,-164.177,122,-1382,-148
1.393951,-7,4,-2238,-4,7,-5,16376.513,428.749,-185.248,-164.659
1.413940,-16,14,-2239,-4,8,-3,16376.487,429.499,-185.455,-165.093
1.434051,-11,10,-2256,-4,7,-5,16376.457,430.296,-185.919,-165.486
1.453979,-9,19,-2225,-5,7,-4,16376.420,431.224,-186.425,-166.142
1.473968,0,-5,-2254,-7,8,-5,16376.390,431.943,-186.924,-166.623,116,-1388,-149
1.493988,-9,-12,-2223,-6,8,-3,16376.361,432.703,-187.303,-167.150
1.514007,-5,10,-2243,-7,8,-4,16376.330,433.493,-187.599,-167.715
1.534027,-21,-8,-2234,-4,10,-4,16376.300,434.282,-188.108,-168.111
1.554046,-10,11,-2234,-6,7,-4,16376.264,435.283,-188.326,-168.719
1.574035,-2,-4,-2255,-4,10,-4,16376.234,436.056,-188.763,-169.199,121,-1388,-158
1.594055,13,-4,-2220,-5,6,-4,16376.210,436.593,-189.040,-169.769
1.614075,-4,11,-2248,-5,7,-4,16376.185,437.349,-189.275,-169.985
1.634064,-4,14,-2243,-4,7,-3,16376.154,438.233,-189.559,-170.418
1.654083,-14,9,-2246,-5,10,-3,16376.125,438.975,-189.881,-170.939
1.674103,2,2,-2216,-5,5,-6,16376.097,439.697,-190.256,-171.334,117,-1380,-155
1.694092,-2,12,-2230,-5,7,-3,16376.065,440.444,-190.702,-171.950
1.714111,0,14,-2232,-6,7,-5,16376.035,441.215,-191.099,-172.430
1.734131,-12,12,-2248,-6,10,-3,16376.007,441.828,-191.423,-173.172
1.754120,1,-4,-2241,-6,8,-5,16375.978,442.567,-191.699,-173.692,117,-1380,-155,31830
1.774139,-18,6,-2248,-4,8,-5,16375.955,443.139,-191.871,-174.257,129,-1387,-155
1.794159,11,6,-2240,-4,7,-3,16375.925,443.826,-192.285,-174.827
1.814148,12,5,-2237,-5,6,-4,16375.895,444.571,-192.712,-175.262
1.834198,-22,3,-2250,-5,7,-3,16375.864,445.239,-193.098,-176.004
1.854187,-32,15,-2235,-6,6,-5,16375.835,445.912,-193.573,-176.533
1.874206,-1,-10,-2237,-5,8,-4,16375.809,446.546,-193.906,-176.971,128,-1378,-149
1.894226,3,4,-2252,-4,6,-4,16375.778,447.340,-194.364,-177.321
1.914215,-12,-3,-2231,-7,8,-3,16375.751,448.004,-194.686,-177.758
1.934234,2,-12,-2268,-6,8,-5,16375.726,448.584,-194.997,-178.282
1.954254,-1,-5,-2265,-4,8,-4,16375.704,449.007,-195.277,-178.896
1.974243,-19,11,-2240,-4,7,-6,16375.676,449.645,-195.657,-179.465,121,-1381,-158
1.994263,-6,-2,-2236,-5,6,-4,16375.648,450.277,-196.137,-179.904
2.014252,-2,-1,-2217,-5,7,-4,16375.615,451.091,-196.495,-180.518
2.034271,-3,18,-2246,-5,8,-5,16375.584,451.750,-197.048,-181.093
2.054291,8,1,-2248,-7,6,-3,16375.553,452.445,-197.569,-181.580
2.074310,9,6,-2267,-6,8,-4,16375.520,453.180,-198.113,-182.067,125,-1391,-152
2.094330,4,5,-2251,-7,7,-4,16375.493,453.832,-198.392,-182.632
2.114319,10,6,-2234,-4,8,-3,16375.461,454.635,-198.622,-183.196
2.134338,-9,-6,-2260,-5,7,-5,16375.436,455.152,-198.963,-183.805
2.154358,-3,11,-2220,-5,7,-5,16375.408,455.815,-199.211,-184.372
2.174438,-10,13,-2264,-4,8,-4,16375.380,456.329,-199.868,-184.858,123,-1383,-160
2.194366,6,5,-2231,-5,7,-3,16375.352,456.962,-200.280,-185.337
2.214386,-27,19,-2262,-5,8,-5,16375.328,457.458,-200.751,-185.736
2.234375,-2,9,-2238,-5,7,-2,16375.296,458.263,-200.994,-186.298
2.254394,-2,17,-2230,-3,8,-4,16375.273,458.847,-201.136,-186.774,123,-1383,-160,31859
2.274414,-4,0,-2240,-6,6,-3,16375.242,459.673,-201.267,-187.334,114,-1393,-151
2.294403,9,5,-2250,-5,8,-3,16375.221,460.054,-201.609,-187.816
2.314422,-18,7,-2241,-4,4,-3,16375.197,460.607,-201.956,-188.167
2.334442,-16,6,-2220,-6,7,-2,16375.165,461.405,-202.360,-188.562
2.354462,0,12,-2248,-5,6,-5,16375.139,461.987,-202.741,-189.044
2.374451,-5,6,-2222,-6,7,-6,16375.117,462.451,-202.986,-189.480,136,-1382,-155
2.394470,0,11,-2232,-4,6,-5,16375.095,463.019,-203.176,-189.867
2.414490,-7,6,-2222,-5,6,-3,16375.075,463.475,-203.320,-190.259
2.434509,-9,2,-2236,-4,4,-3,16375.051,464.028,-203.549,-190.737
2.454498,0,14,-2259,-6,7,-4,16375.024,464.640,-203.990,-191.132
2.474518,-6,9,-2243,-4,6,-2,16375.006,465.088,-203.977,-191.608,120,-1382,-146
2.494537,-4,12,-2258,-4,6,-5,16374.979,465.679,-204.294,-192.089
2.514526,-6,-20,-2236,-4,7,-4,16374.951,466.337,-204.561,-192.611
2.534546,7,-3,-2220,-5,8,-5,16374.928,466.851,-204.935,-192.965
2.554565,0,10,-2250,-4,4,-3,16374.902,467.253,-205.408,-193.673
2.574585,-8,6,-2234,-6,6,-5,16374.878,467.774,-205.505,-194.320,119,-1381,-156
2.594574,-8,-9,-2237,-5,7,-4,16374.856,468.259,-205.884,-194.588
2.614593,-7,4,-2247,-5,6,-2,16374.826,468.966,-206.289,-195.026
2.634613,-1,-5,-2246,-5,8,-2,16374.799,469.591,-206.720,-195.292
2.654602,-24,-3,-2245,-5,8,-3,16374.778,469.995,-206.915,-195.905
2.674621,-8,14,-2233,-5,5,-4,16374.757,470.450,-207.066,-196.428,122,-1389,-148
2.694610,-8,2,-2228,-4,7,-4,16374.729,471.119,-207.262,-196.953
2.714630,7,15,-2226,-4,7,-2,16374.701,471.768,-207.503,-197.477
2.734649,2,-10,-2227,-5,8,-4,16374.678,472.241,-207.751,-197.997
2.754669,-9,-6,-2210,-5,7,-5,16374.656,472.680,-208.043,-198.438,122,-1389,-148,31837
2.774689,-14,-5,-2245,-4,5,-2,16374.629,473.266,-208.330,-198.919,120,-1384,-148
2.794678,-17,-6,-2229,-4,7,-4,16374.601,473.879,-208.753,-199.360
2.814697,-4,-4,-2262,-4,7,-4,16374.568,474.537,-209.178,-200.017
2.834686,3,11,-2250,-6,10,-6,16374.543,475.137,-209.315,-200.498
2.854706,-6,1,-2238,-4,7,0,16374.524,475.570,-209.490,-200.888
2.874725,-13,15,-2214,-5,5,-2,16374.506,475.848,-209.961,-201.203,121,-1385,-151
2.894714,3,-1,-2224,-5,4,-2,16374.481,476.294,-210.447,-201.647
2.914734,0,6,-2228,-5,6,-4,16374.459,476.805,-210.675,-202.039
2.934753,-13,12,-2239,-6,6,-3,16374.437,477.217,-211.005,-202.479
2.954773,-4,5,-2230,-5,7,-3,16374.410,477.796,-211.277,-203.005
2.974792,-2,7,-2263,-4,7,-4,16374.386,478.375,-211.579,-203.267,128,-1388,-158
2.994781,-17,4,-2247,-5,7,-3,16374.356,478.965,-211.892,-203.921
3.014801,-20,2,-2238,-6,5,-5,16374.324,479.675,-212.211,-204.489
3.034820,-7,4,-2236,-5,8,-4,16374.302,480.205,-212.431,-204.795
3.054809,-9,21,-2199,-6,7,-3,16374.281,480.649,-212.585,-205.275
3.074829,-7,1,-2216,-5,6,-5,16374.252,481.241,-213.025,-205.757,127,-1382,-161
3.094848,-5,5,-2252,-6,7,-4,16374.226,481.832,-213.196,-206.278
3.114837,10,-14,-2240,-5,8,-4,16374.198,482.334,-213.536,-206.984
3.134857,3,0,-2259,-7,6,-5,16374.173,482.801,-213.895,-207.511
3.154877,1,-19,-2252,-4,7,-4,16374.146,483.313,-214.023,-208.252
3.174896,-15,13,-2226,-5,6,-6,16374.127,483.709,-214.214,-208.647,122,-1389,-164
3.194885,4,2,-2230,-6,8,-4,16374.099,484.184,-214.719,-209.222
3.214935,0,12,-2253,-5,7,-5,16374.070,484.740,-215.284,-209.621
3.234924,-20,7,-2230,-6,7,-2,16374.044,485.272,-215.560,-210.145
3.254913,7,-12,-2251,-6,7,-4,16374.016,485.870,-215.954,-210.586,122,-1389,-164,31839
3.274933,1,15,-2247,-5,6,-2,16373.985,486.402,-216.466,-211.202,90,-1412,-172
3.294952,5,10,-2266,-7,6,-4,16373.953,486.974,-216.878,-211.943
3.314972,8,4,-2209,-5,8,-6,16373.922,487.601,-217.271,-212.468
3.334961,-14,9,-2259,-5,6,-4,16373.894,488.086,-217.655,-213.123
3.354980,-14,13,-2238,-6,7,-5,16373.865,488.765,-217.921,-213.558
3.375000,-2,-4,-2245,-6,7,-4,16373.833,489.471,-218.373,-213.954,80,-1455,-152
3.395080,-6,8,-2272,-7,8,-5,16373.806,489.917,-218.732,-214.571
3.415008,1,17,-2259,-5,6,-3,16373.779,490.469,-219.103,-215.054
3.435089,-3,-10,-2234,-5,7,-5,16373.751,491.049,-219.443,-215.490
3.455047,-3,3,-2251,-6,7,-4,16373.717,491.813,-219.799,-215.927
3.475036,-6,-6,-2220,-5,7,-4,16373.694,492.257,-220.222,-216.280,74,-1501,-124
3.495056,-2,5,-2219,-4,5,-3,16373.672,492.743,-220.413,-216.627
3.515076,7,-16,-2236,-4,6,-2,16373.645,493.208,-220.718,-217.280
3.535065,-4,-2,-2236,-5,5,-5,16373.620,493.591,-221.055,-217.939
3.555084,-2,3,-2250,-6,6,-5,16373.590,494.241,-221.399,-218.376
3.575104,-22,-7,-2241,-5,6,-3,16373.563,494.777,-221.589,-218.984,73,-1533,-100
3.595123,-5,14,-2235,-6,7,-5,16373.534,495.342,-221.864,-219.639
3.615112,-8,2,-2243,-5,7,-4,16373.509,495.910,-222.045,-220.029
3.635132,-6,2,-2272,-5,7,-4,16373.477,496.573,-222.287,-220.639
3.655121,-4,-9,-2236,-5,7,-4,16373.447,497.244,-222.468,-221.202
3.675140,-13,7,-2215,-5,7,-2,16373.411,498.023,-222.731,-221.810,83,-1558,-90
3.695160,2,-3,-2223,-6,7,-5,16373.381,498.721,-222.996,-222.247
3.715179,-4,-1,-2248,-5,7,-4,16373.349,499.292,-223.460,-222.863
3.735168,-5,-5,-2243,-5,7,-5,16373.316,500.056,-223.648,-223.340
3.755188,-12,-7,-2239,-4,10,-4,16373.289,500.568,-223.898,-223.909,83,-1558,-90,31861
3.775207,-17,-4,-2230,-6,8,-4,16373.262,501.122,-224.292,-224.263,95,-1575,-83
3.795196,-3,6,-2231,-6,7,-2,16373.234,501.698,-224.604,-224.744
3.815216,-7,5,-2242,-4,8,-2,16373.214,502.143,-224.811,-225.006
3.835235,-12,-6,-2223,-3,7,-4,16373.189,502.615,-225.173,-225.401
3.855224,-6,31,-2239,-4,8,-4,16373.156,503.339,-225.392,-225.922
3.875244,4,11,-2235,-5,7,-3,16373.134,503.694,-225.698,-226.446,80,-1571,-86
3.895264,0,8,-2221,-4,6,-5,16373.108,504.176,-225.991,-226.971
3.915283,-10,13,-2230,-5,6,-3,16373.070,504.911,-226.497,-227.540
3.935272,-16,3,-2238,-5,7,-3,16373.041,505.423,-226.927,-228.069
3.955292,6,-6,-2252,-5,7,-3,16373.013,506.050,-227.181,-228.462
3.975311,-9,-10,-2264,-5,7,-4,16372.989,506.571,-227.303,-228.854,88,-1568,-87
3.995331,10,-3,-2185,-5,7,-2,16372.956,507.375,-227.316,-229.465
4.015320,-2,4,-2261,-5,7,-4,16372.939,507.620,-227.697,-229.774
4.035339,5,2,-2244,-4,6,0,16372.913,508.176,-227.849,-230.207
4.055359,-2,6,-2240,-6,8,-5,16372.890,508.577,-228.079,-230.726
4.075378,-7,7,-2260,-5,7,0,16372.861,509.166,-228.315,-231.251,83,-1556,-99
4.095367,-5,19,-2213,-4,7,-4,16372.836,509.736,-228.384,-231.729
4.115387,-3,-1,-2220,-4,6,-3,16372.812,510.280,-228.591,-232.028
4.135376,3,-8,-2245,-5,6,-2,16372.789,510.760,-228.884,-232.293
4.155395,0,16,-2252,-6,6,-3,16372.761,511.249,-229.194,-232.865
4.175415,-13,-4,-2226,-6,6,-3,16372.740,511.624,-229.511,-233.216,99,-1569,-98
4.195404,-3,1,-2244,-5,7,-3,16372.714,512.095,-229.724,-233.782
4.215423,-7,0,-2246,-4,5,-5,16372.689,512.580,-229.933,-234.265
4.235443,3,16,-2245,-7,6,-3,16372.666,513.020,-230.206,-234.657
4.255462,-2,8,-2233,-4,6,-3,16372.642,513.445,-230.520,-235.094,99,-1569,-98,31886
4.275482,-6,4,-2228,-4,7,-3,16372.609,514.179,-230.846,-235.485,101,-1571,-95
4.295471,-15,10,-2237,-5,8,-2,16372.589,514.531,-231.089,-235.836
4.315491,-18,1,-2237,-4,6,0,16372.574,514.722,-231.357,-236.236
4.335510,-1,2,-2257,-6,5,-3,16372.542,515.283,-231.688,-236.848
4.355499,8,-8,-2227,-5,7,-4,16372.514,515.803,-231.935,-237.461
4.375519,-19,-9,-2251,-6,7,-4,16372.487,516.277,-232.145,-238.074,90,-1558,-99
4.395538,-2,1,-2252,-5,6,-4,16372.463,516.752,-232.214,-238.593
4.415558,1,7,-2271,-4,6,-2,16372.433,517.328,-232.587,-239.074
4.435547,1,10,-2217,-4,7,-4,16372.414,517.698,-232.714,-239.464
4.455566,-15,-3,-2242,-4,7,-3,16372.389,518.170,-232.939,-239.942
4.475586,-20,12,-2256,-5,6,-4,16372.360,518.721,-233.252,-240.425,83,-1556,-101
4.495605,4,0,-2246,-6,8,-4,16372.332,519.245,-233.547,-240.906
4.515594,-12,-7,-2258,-6,7,-5,16372.310,519.578,-233.810,-241.431
4.535614,-9,-2,-2283,-4,6,-5,16372.283,520.076,-234.087,-241.870
4.555603,-14,6,-2241,-4,7,-4,16372.248,520.731,-234.567,-242.355
4.575622,1,6,-2240,-5,7,-3,16372.223,521.075,-235.047,-242.842,86,-1565,-101
4.595642,9,9,-2241,-6,6,-2,16372.196,521.587,-235.138,-243.492
4.615722,6,-15,-2220,-4,6,-7,16372.171,522.050,-235.391,-243.972
4.635650,-13,11,-2256,-3,7,-2,16372.143,522.565,-235.611,-244.499
4.655670,-3,-14,-2268,-5,8,-5,16372.115,523.045,-235.928,-245.068
4.675690,-11,1,-2278,-5,6,-4,16372.091,523.442,-236.121,-245.637,102,-1558,-92
4.695679,3,25,-2253,-6,10,-4,16372.071,523.864,-236.138,-246.024
4.715698,-10,11,-2227,-4,5,-3,16372.048,524.313,-236.375,-246.414
4.735718,2,10,-2245,-6,7,-4,16372.023,524.698,-236.603,-247.026
4.755707,4,13,-2249,-6,7,-5,16371.991,525.284,-236.977,-247.553,102,-1558,-92,31875
4.775726,-8,3,-2236,-6,7,-5,16371.960,525.854,-237.298,-248.032,101,-1569,-93
4.795746,-12,-3,-2258,-4,8,-4,16371.943,526.074,-237.359,-248.641
4.815765,-1,1,-2230,-5,4,-4,16371.920,526.487,-237.432,-249.203
4.835754,-4,13,-2250,-4,5,-4,16371.893,526.973,-237.708,-249.684
4.855774,-18,-15,-2221,-5,6,-4,16371.869,527.353,-237.939,-250.250
4.875793,-15,-10,-2243,-5,6,-6,16371.843,527.808,-238.237,-250.734,90,-1556,-94
4.895813,11,-1,-2260,-6,6,-2,16371.819,528.258,-238.476,-251.083
4.915832,-17,-9,-2231,-6,7,-3,16371.793,528.752,-238.674,-251.560
4.935821,6,6,-2247,-4,8,-4,16371.771,529.107,-238.865,-252.047
4.955810,-19,15,-2243,-6,6,-4,16371.746,529.575,-239.090,-252.480
4.975830,-8,12,-2263,-6,6,-2,16371.727,529.925,-239.198,-252.912,104,-1565,-96
4.995849,-16,1,-2245,-4,7,-3,16371.698,530.401,-239.489,-253.520
5.015838,-2,7,-2227,-5,7,-5,16371.678,530.774,-239.401,-254.077
5.035858,-2,1,-2268,-2,7,-5,16371.659,531.106,-239.602,-254.429
5.055878,-1,-16,-2189,-5,7,-3,16371.626,531.635,-240.094,-255.001
5.075867,-10,17,-2245,-6,8,-5,16371.604,531.992,-240.173,-255.614,92,-1559,-93
5.095886,0,25,-2229,-4,6,-4,16371.578,532.427,-240.364,-256.137
5.115906,5,8,-2249,-5,7,-3,16371.552,532.810,-240.647,-256.790
5.135925,-21,0,-2240,-5,8,-6,16371.522,533.368,-240.830,-257.312
5.155945,-1,2,-2243,-5,8,-3,16371.501,533.741,-241.016,-257.752
5.175934,-3,0,-2251,-5,5,-3,16371.481,534.080,-241.246,-258.059,97,-1556,-101
5.195953,-2,-10,-2238,-5,7,-3,16371.456,534.493,-241.557,-258.498
5.215973,-12,-8,-2237,-5,6,-2,16371.430,534.976,-241.810,-258.941
5.235962,-18,9,-2233,-7,10,-3,16371.399,535.437,-242.195,-259.558
5.255981,-9,10,-2244,-7,6,-5,16371.372,535.869,-242.444,-260.174,97,-1556,-101,31875
5.276001,-5,7,-2240,-6,6,-6,16371.350,536.252,-242.726,-260.480,99,-1571,-102
5.295990,-5,9,-2216,-3,6,-3,16371.329,536.703,-242.726,-260.911
5.316009,0,3,-2264,-4,8,0,16371.304,537.045,-243.106,-261.397
5.336029,-13,-4,-2232,-6,6,-4,16371.278,537.482,-243.175,-262.050
5.356048,2,4,-2215,-4,8,-4,16371.258,537.879,-243.431,-262.272
5.376037,-10,5,-2244,-6,7,-2,16371.239,538.208,-243.553,-262.663,100,-1563,-96
5.396057,-18,6,-2245,-5,6,-4,16371.205,538.741,-244.002,-263.238
5.416046,5,-2,-2240,-6,6,-3,16371.180,539.091,-244.309,-263.811
5.436066,-4,4,-2216,-6,6,-4,16371.155,539.577,-244.570,-264.120
5.456085,5,20,-2238,-5,8,-2,16371.127,540.073,-244.686,-264.725
5.476105,9,3,-2235,-5,8,-4,16371.102,540.381,-245.151,-265.213,103,-1562,-100
5.496124,-16,6,-2241,-6,7,-5,16371.079,540.647,-245.428,-265.826
5.516113,10,7,-2245,-5,5,-4,16371.055,541.067,-245.755,-266.179
5.536133,0,4,-2232,-5,7,-3,16371.034,541.421,-246.006,-266.528
5.556152,17,16,-2277,-6,6,-4,16371.009,541.852,-246.356,-266.833
5.576172,-11,13,-2247,-6,7,-2,16370.984,542.323,-246.587,-267.221,102,-1558,-92
5.596161,-5,1,-2246,-6,6,-5,16370.961,542.668,-246.731,-267.788
5.616180,-2,2,-2244,-4,7,-4,16370.932,543.112,-246.988,-268.444
5.636200,0,-8,-2252,-7,8,-4,16370.902,543.659,-247.310,-268.840
5.656219,-13,3,-2251,-6,7,-2,16370.884,544.039,-247.377,-269.139
5.676208,-17,10,-2248,-5,8,-3,16370.852,544.619,-247.646,-269.619,89,-1562,-100
5.696197,-4,3,-2246,-5,7,-3,16370.825,545.089,-247.942,-270.055
5.716217,-6,-5,-2258,-3,7,-3,16370.798,545.535,-248.200,-270.537
5.736236,-3,10,-2227,-5,8,-2,16370.775,545.928,-248.464,-270.889
5.756225,8,13,-2229,-5,8,-4,16370.744,546.424,-248.813,-271.456,89,-1562,-100,31898
5.776245,9,0,-2234,-7,7,-6,16370.718,546.740,-249.275,-271.944,103,-1559,-109
5.796264,-20,11,-2231,-6,6,-2,16370.701,547.055,-249.374,-272.250
5.816284,-16,-3,-2242,-4,6,-2,16370.677,547.429,-249.603,-272.775
5.836365,0,9,-2246,-4,5,-5,16370.646,548.029,-249.667,-273.336
5.856293,5,15,-2229,-4,8,-4,16370.615,548.451,-250.090,-273.951
5.876312,-1,16,-2249,-5,6,-3,16370.592,548.841,-250.321,-274.343,90,-1570,-94
5.896332,0,-9,-2242,-4,6,-3,16370.574,549.132,-250.417,-274.778
5.916321,5,4,-2231,-5,7,-4,16370.543,549.621,-250.717,-275.347
5.936340,-5,2,-2252,-6,6,-4,16370.515,549.989,-250.812,-276.217
5.956360,3,-12,-2267,-3,7,-5,16370.484,550.501,-251.063,-276.781
5.976379,-12,8,-2249,-5,8,-3,16370.455,550.991,-251.228,-277.347,90,-1563,-101
5.996368,-17,-9,-2240,-4,7,-6,16370.425,551.504,-251.422,-277.958
6.016388,3,-4,-2237,-5,7,-6,16370.396,552.011,-251.521,-278.567
6.036377,-11,-11,-2232,-4,7,-4,16370.372,552.398,-251.903,-278.876
6.056396,8,1,-2257,-6,8,0,16370.346,552.781,-252.042,-279.486
6.076416,-5,-2,-2239,-5,6,-5,16370.324,553.264,-252.070,-279.833,102,-1558,-99
6.096405,-9,4,-2246,-3,7,-2,16370.293,553.817,-252.321,-280.272
6.116424,8,5,-2234,-5,7,-3,16370.268,554.186,-252.583,-280.798
6.136444,12,5,-2222,-5,7,0,16370.247,554.458,-252.780,-281.324
6.156463,-9,16,-2230,-6,6,-6,16370.219,554.861,-252.981,-281.935
6.176483,-8,20,-2227,-3,7,-5,16370.194,555.357,-253.268,-282.150,103,-1552,-98
6.196472,4,-1,-2221,-5,8,-2,16370.163,555.857,-253.682,-282.586
6.216492,-10,5,-2191,-5,6,-4,16370.131,556.333,-254.014,-283.240
6.236511,-7,3,-2237,-6,8,-5,16370.100,556.845,-254.267,-283.764
6.256500,-8,10,-2245,-6,8,-3,16370.076,557.147,-254.568,-284.335,103,-1552,-98,31869
6.276520,5,13,-2250,-4,7,-3,16370.048,557.556,-254.794,-284.902,93,-1565,-103
6.296539,-1,16,-2233,-6,6,-4,16370.030,557.822,-255.150,-285.130
6.316559,-14,1,-2247,-6,6,-3,16370.011,558.162,-255.333,-285.393
6.336548,16,0,-2249,-5,7,-2,16369.985,558.644,-255.443,-285.830
6.356567,0,8,-2223,-4,7,-3,16369.963,558.917,-255.791,-286.231
6.376556,-2,3,-2232,-6,6,-3,16369.934,559.305,-256.127,-286.846,82,-1552,-107
6.396606,-4,12,-2235,-6,7,-3,16369.904,559.839,-256.401,-287.236
6.416595,-2,-2,-2245,-6,6,-4,16369.876,560.236,-256.750,-287.764
6.436615,-2,-10,-2231,-6,7,-4,16369.851,560.693,-257.099,-287.986
6.456634,-16,6,-2220,-7,7,-2,16369.831,561.017,-257.292,-288.338
6.476623,-5,15,-2254,-5,8,-4,16369.807,561.410,-257.349,-288.860,92,-1550,-104
6.496643,-3,-3,-2248,-3,7,-3,16369.783,561.729,-257.646,-289.345
6.516662,-4,-3,-2234,-5,6,-4,16369.752,562.261,-257.813,-289.908
6.536651,-10,6,-2234,-5,7,-5,16369.728,562.668,-257.908,-290.386
6.556671,-1,4,-2211,-6,6,-5,16369.703,563.092,-258.075,-290.867
6.576691,-12,7,-2225,-5,7,-4,16369.673,563.580,-258.369,-291.305,81,-1556,-103
6.596680,7,9,-2234,-7,6,-3,16369.647,563.949,-258.804,-291.662
6.616699,-19,-3,-2263,-8,6,-2,16369.620,564.272,-259.205,-292.194
6.636719,-19,-5,-2264,-6,7,-4,16369.595,564.669,-259.444,-292.632
6.656738,7,9,-2268,-5,7,-2,16369.575,565.005,-259.607,-292.937
6.676727,-13,4,-2262,-6,7,-4,16369.553,565.299,-259.911,-293.376,88,-1546,-96
6.696747,0,-5,-2221,-6,7,-4,16369.528,565.709,-260.019,-293.853
6.716736,-13,-15,-2222,-4,6,-3,16369.513,565.839,-260.306,-294.168
6.736755,-7,1,-2218,-6,5,-5,16369.480,566.411,-260.635,-294.654
6.756775,-1,0,-2244,-7,8,-3,16369.451,566.993,-260.789,-295.000,88,-1546,-96,31855
6.776794,-2,-2,-2237,-5,7,-2,16369.429,567.426,-260.893,-295.262,92,-1550,-118
6.796814,-6,15,-2225,-4,8,-3,16369.399,568.020,-261.098,-295.648
6.816803,0,11,-2240,-4,7,-3,16369.374,568.445,-261.244,-296.040
6.836822,-6,5,-2228,-3,5,-3,16369.358,568.626,-261.504,-296.393
6.856811,8,12,-2241,-7,6,-3,16369.330,569.009,-261.877,-296.876
6.876831,9,-4,-2197,-5,7,-4,16369.312,569.195,-262.157,-297.231,82,-1538,-123
6.896850,-11,-11,-2271,-6,6,-3,16369.295,569.409,-262.320,-297.626
6.916839,-19,8,-2252,-4,6,-4,16369.269,569.823,-262.515,-298.110
6.936859,-11,4,-2229,-5,7,-4,16369.240,570.200,-262.879,-298.640
6.956878,-9,11,-2244,-5,6,-6,16369.200,570.717,-263.171,-299.603
6.976898,-9,-1,-2233,-4,8,-5,16369.167,571.215,-263.328,-300.296,53,-1528,-131
6.996887,11,-6,-2274,-6,7,-6,16369.144,571.494,-263.599,-300.776
7.016907,-10,12,-2242,-6,7,-4,16369.128,571.579,-263.925,-301.219
7.036926,3,-11,-2237,-5,6,-4,16369.113,571.780,-264.062,-301.527
7.057007,15,-1,-2229,-5,7,0,16369.085,572.258,-264.312,-301.924
7.076935,-7,-7,-2246,-6,7,-3,16369.070,572.532,-264.442,-302.097,7,-1569,-73
7.096954,-2,1,-2224,-6,6,-3,16369.037,573.004,-264.691,-302.754
7.116974,-2,-5,-2251,-5,8,-5,16369.005,573.417,-265.083,-303.369
7.136963,-14,31,-2267,-6,7,-6,16368.976,573.763,-265.368,-304.027
7.156982,-3,22,-2244,-5,6,-4,16368.943,574.261,-265.711,-304.589
7.177002,-12,15,-2223,-6,7,-5,16368.917,574.507,-266.042,-305.206,25,-1609,-38
7.197021,-4,-7,-2247,-6,7,-4,16368.887,575.035,-266.283,-305.640
7.217010,-10,-3,-2249,-4,7,-3,16368.863,575.534,-266.210,-306.022
7.237030,-1,-2,-2225,-3,7,-4,16368.841,575.973,-266.221,-306.371
7.257019,-20,-18,-2250,-3,7,-2,16368.818,576.470,-266.241,-306.629,25,-1609,-38,31906
7.277038,10,4,-2239,-3,7,-2,16368.794,576.922,-266.200,-307.100,35,-1628,-38
7.297058,-12,-5,-2251,-3,7,-5,16368.778,577.018,-266.348,-307.673
7.317077,-22,3,-2241,-6,6,-2,16368.752,577.377,-266.514,-308.197
7.337097,-6,1,-2242,-6,7,-4,16368.725,577.805,-266.650,-308.719
7.357086,-2,-3,-2254,-4,8,-5,16368.693,578.227,-266.891,-309.422
7.377106,-5,7,-2231,-5,7,-5,16368.663,578.617,-267.117,-310.123,43,-1653,-35
7.397125,7,4,-2246,-6,6,-5,16368.639,578.807,-267.251,-310.913
7.417114,-3,7,-2239,-4,7,-5,16368.603,579.427,-267.441,-311.480
7.437134,5,5,-2233,-5,8,-5,16368.576,579.738,-267.705,-312.093
7.457153,-10,10,-2226,-5,7,-4,16368.542,580.166,-267.971,-312.837
7.477173,-27,9,-2249,-5,7,-5,16368.508,580.731,-268.206,-313.357,49,-1645,-41
7.497162,-19,-3,-2258,-4,10,-5,16368.483,581.251,-268.348,-313.616
7.517181,1,-1,-2233,-6,8,0,16368.476,581.256,-268.471,-313.838
7.537201,0,14,-2218,-4,5,-5,16368.457,581.685,-268.412,-314.095
7.557190,-6,-4,-2236,-3,7,-2,16368.435,582.013,-268.456,-314.573
7.577209,-7,0,-2220,-4,7,-5,16368.414,582.281,-268.635,-315.015,43,-1653,-35
7.597229,-3,5,-2256,-5,6,-4,16368.388,582.472,-269.040,-315.681
7.617248,4,7,-2259,-6,5,-7,16368.361,582.825,-269.266,-316.253
7.637237,-6,13,-2239,-6,6,-3,16368.339,583.023,-269.503,-316.823
7.657257,6,14,-2237,-5,5,-5,16368.322,583.268,-269.562,-317.207
7.677276,-9,1,-2240,-4,6,0,16368.295,583.735,-269.716,-317.595,47,-1647,-31
7.697265,6,13,-2244,-5,8,-4,16368.266,584.211,-270.077,-317.906
7.717285,11,-6,-2264,-6,7,-2,16368.240,584.594,-270.386,-318.261
7.737305,1,4,-2232,-5,5,-3,16368.221,584.795,-270.576,-318.701
7.757324,-15,6,-2258,-6,6,-5,16368.198,585.136,-270.823,-319.054,47,-1647,-31,31937
7.777313,-1,6,-2262,-5,7,-3,16368.174,585.552,-270.974,-319.404,41,-1646,-42
7.797333,-14,14,-2232,-5,6,-3,16368.153,585.849,-271.130,-319.795
7.817352,-6,13,-2235,-5,6,-4,16368.130,586.131,-271.244,-320.363
7.837341,3,13,-2217,-5,6,-4,16368.109,586.327,-271.514,-320.843
7.857361,5,0,-2226,-6,6,-4,16368.083,586.764,-271.512,-321.356
7.877380,2,-12,-2227,-3,7,-4,16368.064,586.828,-271.680,-322.103,44,-1657,-36
7.897369,-1,19,-2254,-6,5,-5,16368.054,586.824,-271.637,-322.628
7.917389,-10,-13,-2225,-3,5,-4,16368.030,587.048,-271.932,-323.193
7.937408,-8,-6,-2236,-5,8,-5,16368.011,587.238,-272.075,-323.677
7.957428,-8,-2,-2254,-5,5,-3,16367.983,587.644,-272.185,-324.286
7.977417,1,3,-2250,-6,6,-2,16367.963,587.958,-272.156,-324.767,41,-1658,-39
7.997436,-2,4,-2253,-4,7,-5,16367.936,588.331,-272.466,-325.163
8.017456,-6,-8,-2227,-6,6,-3,16367.918,588.563,-272.603,-325.554
8.037445,3,-3,-2242,-5,7,-2,16367.888,589.014,-272.823,-326.036
8.057464,25,-6,-2264,-5,10,-4,16367.873,589.233,-272.846,-326.382
8.077484,-2,0,-2234,-3,7,-5,16367.854,589.454,-272.924,-326.859,48,-1660,-33
8.097503,-1,4,-2249,-4,7,-5,16367.832,589.689,-273.054,-327.472
8.117493,-12,5,-2245,-5,5,-4,16367.808,590.072,-273.236,-327.819
8.137512,-6,3,-2261,-5,6,-2,16367.784,590.379,-273.407,-328.297
8.157532,-20,3,-2230,-5,7,-3,16367.756,590.804,-273.488,-328.860
8.177521,10,-10,-2253,-4,10,-6,16367.737,591.017,-273.601,-329.341,47,-1659,-34
8.197540,-3,-6,-2254,-4,7,-2,16367.706,591.503,-273.685,-329.947
8.217560,-3,0,-2229,-6,7,-5,16367.679,591.873,-273.802,-330.512
8.237549,-7,1,-2239,-4,7,-4,16367.654,592.228,-273.998,-330.950
8.257568,-7,4,-2251,-5,6,-4,16367.629,592.406,-274.345,-331.569,47,-1659,-34,31923
8.277649,7,22,-2234,-5,7,-5,16367.647,591.912,-274.089,-331.780,41,-1658,-44
8.297607,-13,2,-2214,-1,-1,0,16367.701,590.580,-273.645,-331.861
8.317596,-3,4,-2237,-1,-1,-1,16367.757,589.248,-273.049,-331.940
8.337616,0,0,-2233,1,0,-1,16367.811,587.993,-272.300,-332.151
8.357635,3,10,-2210,0,0,-1,16367.871,586.468,-271.811,-332.280
8.377624,14,-16,-2225,-2,-2,1,16367.928,585.127,-271.273,-332.274,48,-1655,-37
8.397644,-3,-1,-2226,-1,-2,0,16367.994,583.622,-270.672,-332.187
8.417663,6,5,-2253,-2,-3,0,16368.054,582.081,-270.152,-332.319
8.437683,-8,-3,-2228,-1,-3,0,16368.112,580.585,-269.684,-332.450
8.457672,-23,4,-2261,0,-1,-2,16368.169,579.128,-269.183,-332.623
8.477691,9,3,-2243,-1,-1,-3,16368.224,577.845,-268.565,-332.661,46,-1653,-37
8.497711,12,-7,-2259,-1,-2,1,16368.286,576.357,-267.905,-332.699
8.517700,-4,-10,-2250,-1,-2,-1,16368.343,574.930,-267.426,-332.742
8.537720,0,33,-2260,0,0,-1,16368.400,573.592,-266.847,-332.739
8.557709,-2,12,-2255,-1,-2,0,16368.451,572.178,-266.451,-332.956
8.577728,5,-1,-2240,-1,-1,-1,16368.508,570.774,-265.807,-333.081,47,-1649,-38
8.597748,4,17,-2237,-1,-1,-2,16368.555,569.491,-265.270,-333.425
8.617767,2,-8,-2237,0,0,-3,16368.612,568.184,-264.623,-333.328
8.637756,-24,-2,-2250,-1,-1,-1,16368.662,566.968,-263.887,-333.535
8.657806,-21,9,-2276,0,0,-2,16368.711,565.644,-263.451,-333.751
8.677795,-3,1,-2227,0,0,-2,16368.763,564.326,-263.108,-333.711,41,-1655,-44
8.697815,-16,7,-2233,-1,-2,0,16368.811,563.098,-262.702,-333.710
8.717834,7,10,-2258,-2,-1,0,16368.854,561.865,-262.337,-333.973
8.737854,-1,-5,-2239,-1,-1,-3,16368.904,560.605,-261.769,-334.098
8.757843,9,-4,-2246,-1,-1,-1,16368.961,559.283,-261.008,-334.134,41,-1655,-44,31945
8.777832,-21,-11,-2231,0,-2,-1,16369.009,558.098,-260.489,-334.170,41,-1658,-39
8.797851,4,7,-2252,-2,-1,-2,16369.054,556.802,-260.055,-334.434
8.817871,-4,-17,-2249,-3,-1,-3,16369.102,555.461,-259.616,-334.653
8.837890,-7,0,-2268,-2,-2,-2,16369.148,554.172,-259.195,-334.871
8.857879,-3,-16,-2232,-1,-1,-3,16369.201,552.741,-258.639,-335.083
8.877899,-9,7,-2271,-2,-2,-4,16369.259,551.226,-258.007,-335.211,37,-1647,-31
8.897919,-8,3,-2241,-2,-2,-1,16369.315,549.883,-257.628,-334.995
8.917908,-9,-10,-2260,0,0,0,16369.369,548.648,-256.926,-334.942
8.937927,-8,0,-2226,0,1,0,16369.419,547.343,-256.357,-335.070
8.957947,-12,7,-2222,-2,-1,-2,16369.470,546.117,-255.628,-335.104
8.977966,-2,-11,-2270,0,0,0,16369.518,545.004,-255.172,-334.926,48,-1660,-44
8.997955,13,7,-2239,-3,-1,2,16369.573,543.695,-254.677,-334.753
9.017975,-7,3,-2244,0,0,-1,16369.624,542.344,-254.208,-334.794
9.037994,7,18,-2253,-2,-2,1,16369.669,541.090,-253.791,-334.965
9.058014,-5,-13,-2243,-1,-1,-2,16369.717,539.758,-253.221,-335.178
9.078003,5,6,-2239,-2,-2,-1,16369.768,538.438,-252.751,-335.176,38,-1651,-46
9.098022,-6,4,-2256,-2,-1,0,16369.816,537.201,-252.257,-335.173
9.118042,-13,-9,-2227,0,0,0,16369.865,535.994,-251.564,-335.250
9.138031,-4,15,-2230,1,0,-1,16369.916,534.715,-250.979,-335.203
9.158050,-12,-2,-2239,-1,-2,0,16369.967,533.427,-250.419,-335.199
9.178039,3,14,-2226,1,0,-1,16370.011,532.243,-249.984,-335.288,36,-1648,-37
9.198059,22,12,-2232,0,0,-2,16370.058,530.952,-249.744,-335.203
9.218078,12,5,-2220,-2,-2,0,16370.108,529.651,-249.164,-335.239
9.238067,-2,5,-2231,-1,-1,-1,16370.157,528.446,-248.660,-335.147
9.258087,5,4,-2229,-1,-1,0,16370.198,527.315,-248.315,-335.146,36,-1648,-37,31943
9.278107,-19,4,-2207,-2,-2,0,16370.244,526.107,-247.724,-335.271,41,-1648,-46
9.298126,-4,-10,-2240,1,0,-2,16370.281,525.027,-247.170,-335.526
9.318146,-11,-11,-2240,-1,-1,-1,16370.327,523.906,-246.512,-335.520
9.338135,10,4,-2259,1,0,0,16370.374,522.753,-245.838,-335.557
9.358154,-10,7,-2230,0,0,1,16370.426,521.298,-245.354,-335.640
9.378174,-6,0,-2224,-1,-2,-3,16370.474,520.086,-244.785,-335.590,35,-1649,-41
9.398193,-6,-3,-2244,1,0,1,16370.521,518.774,-244.340,-335.635
9.418182,11,0,-2222,-2,-3,0,16370.569,517.427,-243.806,-335.762
9.438202,-1,-2,-2253,0,0,-2,16370.609,516.358,-243.288,-335.845
9.458221,-9,8,-2260,-2,-1,-2,16370.653,515.363,-242.503,-335.790
9.478241,3,5,-2239,1,0,1,16370.697,514.280,-241.917,-335.739,41,-1651,-33
9.498291,-4,19,-2223,0,2,-2,16370.733,513.201,-241.453,-335.953
9.518249,-6,10,-2242,-1,-1,-1,16370.782,511.901,-240.989,-335.902
9.538269,4,-5,-2268,-2,-2,-1,16370.820,510.870,-240.701,-335.813
9.558258,-12,6,-2266,-1,0,0,16370.862,509.783,-240.010,-335.890
9.578277,-9,0,-2223,1,0,-2,16370.910,508.602,-239.358,-335.835,46,-1648,-44
9.598266,5,0,-2232,-1,-1,1,16370.954,507.446,-238.802,-335.830
9.618286,-9,5,-2243,-3,-3,-1,16370.997,506.360,-238.260,-335.736
9.638305,-8,-7,-2206,0,0,0,16371.040,505.161,-237.897,-335.734
9.658325,-2,7,-2234,-1,-2,0,16371.085,503.924,-237.482,-335.692
9.678314,9,5,-2247,-2,-2,1,16371.126,502.773,-237.106,-335.685,34,-1646,-39
9.698334,-5,12,-2257,-2,-1,-3,16371.157,501.712,-236.799,-335.948
9.718353,10,3,-2235,0,0,-1,16371.200,500.535,-236.185,-336.071
9.738342,-16,-16,-2215,1,0,-2,16371.239,499.408,-235.742,-336.148
9.758362,-11,8,-2240,0,1,-1,16371.280,498.263,-235.191,-336.231,34,-1646,-39,31953
9.778381,9,9,-2270,-1,-1,-2,16371.320,497.141,-234.705,-336.270,38,-1655,-51
9.798401,4,8,-2244,-1,-1,-2,16371.358,495.968,-234.444,-336.359
9.818390,-24,12,-2268,-1,-1,0,16371.401,494.764,-233.998,-336.353
9.838409,2,6,-2251,-1,-2,1,16371.440,493.648,-233.593,-336.349
9.858398,13,10,-2241,-2,-1,0,16371.482,492.407,-233.140,-336.432
9.878418,-15,1,-2238,-1,-1,1,16371.527,491.160,-232.684,-336.383,38,-1644,-44
9.898437,-5,7,-2259,0,0,0,16371.573,489.938,-232.199,-336.293
9.918457,-9,-6,-2240,-3,-2,1,16371.619,488.755,-231.735,-336.070
9.938476,-18,-5,-2218,-2,-1,2,16371.661,487.568,-231.205,-336.108
9.958465,-20,7,-2227,1,0,-1,16371.699,486.558,-230.612,-336.142
9.978485,-6,8,-2251,-2,-2,-1,16371.735,485.612,-230.243,-336.010,35,-1642,-41
9.998474,1,-5,-2235,-1,-2,1,16371.774,484.528,-229.835,-335.965
10.018493,-2,5,-2275,-1,-2,1,16371.819,483.319,-229.278,-335.873
10.038513,-5,16,-2261,0,0,0,16371.862,482.196,-228.725,-335.781
10.058533,-3,-1,-2243,-1,-1,-2,16371.908,480.900,-228.083,-335.820
10.078552,-15,2,-2255,-1,-1,0,16371.949,479.690,-227.545,-335.903,44,-1652,-43
10.098541,-7,12,-2255,0,0,-2,16371.980,478.632,-227.052,-336.248
10.118561,-8,-8,-2238,-2,-1,-4,16372.016,477.419,-226.668,-336.505
10.138580,-17,22,-2247,-2,-1,0,16372.054,476.325,-226.286,-336.461
10.158569,6,1,-2240,1,0,1,16372.095,475.267,-225.651,-336.364
10.178589,-3,3,-2208,0,0,-2,16372.133,474.326,-225.204,-336.139,47,-1654,-50
10.198578,2,-16,-2231,0,0,0,16372.176,473.064,-224.811,-336.094
10.218628,-7,14,-2256,-1,-2,0,16372.206,472.079,-224.514,-336.227
10.238617,-9,3,-2241,-1,-1,-1,16372.236,471.140,-224.149,-336.312
10.258636,-19,5,-2226,-2,-1,-2,16372.278,469.847,-223.643,-336.441,47,-1654,-50,31949
10.278656,-11,3,-2225,-1,-3,0,16372.304,468.860,-223.380,-336.701,42,-1654,-43
10.298645,-14,4,-2225,-2,0,-2,16372.336,468.002,-222.721,-336.776
10.318664,5,-4,-2245,0,0,-2,16372.370,467.075,-222.244,-336.722
10.338684,-11,6,-2261,1,0,-2,16372.406,465.952,-221.845,-336.808
10.358673,-9,-4,-2238,-1,-1,-1,16372.440,464.837,-221.449,-336.937
10.378692,-1,-8,-2231,-2,-2,0,16372.477,463.791,-221.110,-336.805,46,-1648,-42
10.398712,-5,8,-2222,-2,-1,2,16372.512,462.615,-220.692,-337.024
10.418732,2,8,-2227,0,-2,-2,16372.544,461.533,-220.283,-337.192
10.438721,3,13,-2263,-1,-2,-2,16372.583,460.388,-219.743,-337.227
10.458740,5,7,-2247,1,0,-1,16372.620,459.278,-219.200,-337.305
10.478760,-11,6,-2240,-1,-2,0,16372.658,457.999,-218.773,-337.476,41,-1646,-46
10.498749,-3,27,-2242,1,-2,-3,16372.688,456.987,-218.260,-337.732
10.518768,-17,7,-2272,-1,-1,-2,16372.714,456.148,-217.842,-337.851
10.538788,-12,-11,-2238,1,0,1,16372.746,455.094,-217.320,-338.064
10.558807,-3,6,-2246,0,-1,-1,16372.781,454.004,-216.695,-338.233
10.578796,1,2,-2250,-2,-2,-3,16372.820,452.851,-216.218,-338.183,44,-1657,-36
10.598816,-12,10,-2236,-1,-1,-1,16372.851,451.864,-215.664,-338.351
10.618835,-4,-9,-2243,1,0,0,16372.887,450.734,-215.185,-338.433
10.638855,3,8,-2252,0,0,0,16372.922,449.763,-214.614,-338.425
10.658844,-3,5,-2236,1,0,-1,16372.949,448.874,-214.189,-338.547
10.678833,0,-7,-2243,0,0,-2,16372.982,447.923,-213.772,-338.498,50,-1653,-51
10.698852,-4,2,-2245,-1,-1,1,16373.022,446.656,-213.495,-338.370
10.718933,-11,-5,-2231,-2,-2,-1,16373.053,445.671,-213.177,-338.370
10.738891,-12,13,-2231,-3,-3,-1,16373.086,444.622,-212.838,-338.367
10.758880,2,0,-2234,1,0,-3,16373.120,443.465,-212.441,-338.497,50,-1653,-51,31958
10.778900,-1,-6,-2244,-2,-2,0,16373.153,442.518,-212.024,-338.407,29,-1646,-44
10.798920,-9,2,-2247,0,0,-1,16373.188,441.489,-211.486,-338.401
10.818939,3,-1,-2235,0,0,-2,16373.222,440.429,-211.072,-338.399
10.838928,-25,3,-2272,0,0,-1,16373.251,439.441,-210.642,-338.567
10.858948,10,-8,-2247,-1,-1,-3,16373.281,438.546,-210.151,-338.559
10.878967,-14,0,-2254,0,0,-1,16373.315,437.525,-209.823,-338.425,41,-1641,-46
10.898956,3,-1,-2226,-1,-1,1,16373.344,436.566,-209.335,-338.591
10.918976,-14,-12,-2208,1,0,0,16373.373,435.586,-208.879,-338.714
10.938995,-12,3,-2237,0,0,-1,16373.408,434.491,-208.408,-338.708
10.958984,-16,13,-2234,0,0,0,16373.437,433.594,-207.935,-338.744
10.979004,6,8,-2230,-1,-1,0,16373.477,432.444,-207.469,-338.566,38,-1658,-37
10.999023,-11,3,-2243,-1,-2,1,16373.514,431.333,-206.922,-338.559
11.019043,-9,2,-2250,0,-1,-1,16373.541,430.385,-206.530,-338.687
11.039032,-8,-13,-2255,-1,-1,-3,16373.574,429.261,-206.076,-338.814
11.059082,-7,2,-2274,1,-1,0,16373.608,428.231,-205.601,-338.724
11.079040,-1,21,-2240,-2,-1,0,16373.640,427.198,-205.220,-338.723,43,-1644,-28
11.099090,3,-4,-2233,-2,-1,-2,16373.669,426.133,-205.132,-338.725
11.119079,2,9,-2217,-1,-2,-1,16373.705,425.135,-204.623,-338.545
11.139099,-17,8,-2235,1,1,0,16373.739,424.036,-204.119,-338.586
11.159118,-5,0,-2236,-2,-2,-1,16373.771,422.970,-203.789,-338.584
11.179108,-1,15,-2240,-1,-1,-1,16373.793,422.085,-203.463,-338.800,44,-1649,-29
11.199127,-20,2,-2254,-1,-1,-1,16373.825,421.039,-203.219,-338.713
11.219147,-10,-1,-2225,-2,-1,-1,16373.863,419.875,-202.633,-338.664
11.239166,14,9,-2222,0,0,0,16373.898,418.739,-202.165,-338.660
11.259155,9,11,-2232,0,-1,-1,16373.934,417.498,-201.761,-338.704,44,-1649,-29,31960
11.279175,-18,5,-2232,-1,-1,-1,16373.965,416.510,-201.396,-338.613,20,-1670,-21
11.299194,2,10,-2230,-3,-2,0,16373.996,415.523,-200.964,-338.609
11.319183,-13,-5,-2248,-1,-1,-1,16374.018,414.652,-200.796,-338.698
11.339203,-16,0,-2242,-2,-1,0,16374.042,413.740,-200.411,-338.870
11.359222,-26,4,-2242,0,0,-1,16374.072,412.772,-199.825,-338.948
11.379211,-28,21,-2230,0,0,-1,16374.099,411.937,-199.392,-338.943,-100,-1832,5
11.399231,-11,-14,-2248,-1,-1,-1,16374.121,411.159,-199.037,-339.024
11.419250,-6,-9,-2233,0,1,-3,16374.147,410.345,-198.594,-339.020
11.439270,-1,-12,-2257,1,0,-1,16374.181,409.192,-198.149,-339.020
11.459289,11,-3,-2265,-1,-2,-1,16374.206,408.349,-197.754,-339.059
11.479278,17,-10,-2222,0,0,1,16374.237,407.391,-197.302,-338.964,-488,-2782,335
11.499298,10,-5,-2242,-1,-2,1,16374.261,406.425,-197.014,-339.135
11.519287,-1,2,-2241,0,0,0,16374.288,405.386,-196.567,-339.349
11.539306,6,-1,-2220,-2,-1,-3,16374.320,404.291,-196.018,-339.427
11.559326,-8,13,-2239,1,-1,0,16374.347,403.426,-195.462,-339.461
11.579346,-7,4,-2228,1,0,-1,16374.374,402.338,-195.138,-339.633,-251,-4376,1045
11.599335,-13,-11,-2226,-1,-4,-1,16374.410,401.233,-194.705,-339.454
11.619354,2,16,-2228,-1,-2,0,16374.441,400.179,-194.466,-339.368
11.639374,-20,10,-2243,-1,-1,0,16374.466,399.201,-194.109,-339.495
11.659363,-2,5,-2228,-2,-1,-2,16374.499,398.166,-193.696,-339.360
11.679382,-5,7,-2264,1,0,-1,16374.529,397.043,-193.283,-339.443,-133,-5435,913
11.699524,5,2,-2225,0,-1,-3,16374.554,396.098,-192.874,-339.611
11.719421,-9,6,-2242,0,0,-1,16374.586,395.020,-192.389,-339.563
11.739410,6,7,-2249,-1,-1,-1,16374.613,394.091,-192.137,-339.517
11.759430,-9,4,-2249,-1,-1,1,16374.644,393.035,-191.824,-339.428,-133,-5435,913,31960
11.779449,-17,13,-2232,-2,-2,0,16374.667,392.089,-191.647,-339.516,-437,-5338,555
11.799438,-316,-774,-1521,-2,-1,-1,16374.647,394.295,-190.480,-338.583
11.819458,-11,4,-2289,19,67,17,16374.681,395.208,-187.527,-337.517
11.839477,-25,6,-2241,21,31,0,16374.641,398.195,-184.768,-337.457
11.859466,2,9,-2224,-21,-37,0,16374.778,390.925,-188.039,-337.512
11.879486,-9,5,-2240,-3,-3,-1,16374.807,389.816,-187.665,-337.554,-632,-5424,168
11.899505,-11,6,-2239,-1,-1,-1,16374.835,388.946,-187.301,-337.418
11.919494,15,-2,-2225,2,0,-1,16374.859,388.328,-186.643,-337.360
11.939575,-21,-7,-2251,0,1,0,16374.883,387.486,-186.157,-337.397
11.959534,7,10,-2250,1,0,0,16374.800,392.906,-182.399,-337.237
11.979523,2,14,-2248,42,73,1,16374.707,398.466,-178.471,-337.294,-717,-5575,-288
11.999573,-28,-8,-2213,-1,-2,-3,16374.728,397.685,-178.224,-337.331
12.019562,-24,9,-2237,0,1,-2,16374.756,396.886,-177.798,-337.153
12.039581,-16,-4,-2240,-1,-1,2,16374.782,396.190,-177.360,-336.927
12.059601,-9,-2,-2226,-1,-1,0,16374.807,395.383,-177.074,-336.834
12.079590,-11,4,-2204,-1,-1,2,16374.831,394.463,-176.646,-336.959,-720,-5648,-276
12.099609,-16,23,-2241,-1,-1,1,16374.836,394.477,-175.819,-337.152
12.119598,2,1,-2219,0,2,-1,16374.852,393.753,-175.571,-337.322
12.139618,-3,-3,-2228,-2,-1,-1,16374.870,393.260,-175.063,-337.309
12.159637,-1,14,-2248,1,1,-1,16374.895,392.447,-174.634,-337.262
12.179657,-4,-5,-2221,-3,-2,1,16374.919,391.745,-174.356,-337.036,-706,-5681,-266
12.199646,-5,8,-2235,1,0,0,16374.946,391.061,-173.684,-336.892
12.219665,9,-9,-2229,1,0,0,16374.960,390.722,-173.041,-336.920
12.239685,4,18,-2225,1,2,0,16374.972,390.474,-172.237,-337.032
12.259674,-14,16,-2236,3,2,-2,16374.998,389.486,-172.029,-337.029,-706,-5681,-266,31976
; 12 stopping logging: shutdown: switched off
