;Title, http://www.gcdataconcepts.com, HAM-IMU, MPU-9250,,,,,,,,,,,,
;Version,1191, Build date, Nov 15 2016,  SN:CCDC3016FE411C6,,,,,,,,,,,
;Start_time, 2007-01-05, 08:12:15.094,2007-01-05 08:12:15.094,,,,,,,,,,,,
;Temperature,-999, deg C,  Vbat,4112, mv,,,,,,,,,,
;MPU SR,200,Hz,  Accel sens,2048,counts/g, Gyro sens,16,counts/dps,  Mag SR,10,Hz,  Mag sens,1666,counts/mT,
;Deadband,0, counts,,,,,,,,,,,,,
;DeadbandTimeout,5,sec,,,,,,,,,,,,,
;Time, Ax, Ay, Az, Gx, Gy, Gz, Qw, Qx, Qy, Qz, Mx, My, Mz, T,Date Time
0.001557,319,1508,-1511,-1267,327,649,4674.57,-6202.481,329.768,-14422.355,,,,,2007-01-05 08:12:15.096
0.005432,289,1798,-1520,-468,265,551,4720.443,-6279.642,336.078,-14373.796,,,,,2007-01-05 08:12:15.099
0.025421,641,1684,-1798,-486,-261,154,4707.259,-6357.461,389.151,-14342.538,,,,,2007-01-05 08:12:15.119
0.045441,818,1518,-1921,-341,-450,57,4694.033,-6413.675,430.151,-14320.657,-300,-201,-173,,2007-01-05 08:12:15.139
0.06546,759,1410,-1713,-205,-285,53,4699.641,-6434.349,446.442,-14309.041,,,,,2007-01-05 08:12:15.159
0.085449,724,1744,-1332,-31,-2,99,4737.942,-6411.892,433.472,-14306.889,,,,,2007-01-05 08:12:15.179
0.105469,838,1556,-1261,137,414,178,4760.66,-6402.71,370.12,-14305.239,,,,,2007-01-05 08:12:15.199
0.125489,821,1588,-1315,34,289,-269,4769.701,-6395.056,344.445,-14306.292,,,,,2007-01-05 08:12:15.219
0.145478,587,1720,-1440,-255,-115,232,4794.031,-6421.806,330.704,-14286.488,-306,-221,-128,,2007-01-05 08:12:15.239
0.165497,599,1423,-1349,-76,186,-64,4779.168,-6412.138,313.661,-14296.192,,,,,2007-01-05 08:12:15.259
0.185486,546,1297,-1322,59,62,-202,4781.298,-6430.191,312.834,-14287.386,-306,-221,-128,25687,2007-01-05 08:12:15.279
0.205506,509,1328,-1581,-155,-140,238,4802.994,-6444.941,321.397,-14273.266,,,,,2007-01-05 08:12:15.300
0.225495,168,1582,-1384,-35,10,159,4796.88,-6456.821,294.755,-14270.528,,,,,2007-01-05 08:12:15.319
0.245514,183,1619,-1534,-259,158,-379,4689.718,-6459.961,237.464,-14305.75,-298,-205,-177,,2007-01-05 08:12:15.340
0.265534,657,1539,-1193,244,-141,-770,4541.11,-6405.795,258.875,-14377.501,,,,,2007-01-05 08:12:15.360
0.285584,564,1182,-1582,568,-356,-792,4450.534,-6332.259,246.149,-14438.493,,,,,2007-01-05 08:12:15.380
0.305542,903,1282,-1482,564,73,-525,4404.738,-6260.437,292.574,-14482.922,,,,,2007-01-05 08:12:15.400
0.325531,1392,1220,-1472,586,-726,291,4412.05,-6201.89,440.59,-14502.127,,,,,2007-01-05 08:12:15.420
0.345551,771,1172,-1461,457,-437,315,4433.053,-6104.426,501.232,-14535.069,-298,-213,-164,,2007-01-05 08:12:15.440
0.36557,373,1230,-1511,1030,-170,130,4482.449,-6025.326,538.814,-14551.571,,,,,2007-01-05 08:12:15.460
0.38559,542,1514,-1772,126,253,400,4561.083,-6050.212,532.703,-14516.994,,,,,2007-01-05 08:12:15.480
0.405579,933,1593,-1659,-488,202,463,4677.664,-6135.728,461.028,-14446.286,,,,,2007-01-05 08:12:15.500
0.425568,267,1496,-2161,-918,642,685,4871.156,-6195.457,289.1,-14361.058,,,,,2007-01-05 08:12:15.520
0.445587,-437,1354,-1889,-478,1481,658,4974.265,-6106.632,46.089,-14366.595,-307,-210,-166,,2007-01-05 08:12:15.540
0.465607,237,1514,-1187,201,1221,-269,4982.943,-6050.963,-103.615,-14386.828,,,,,2007-01-05 08:12:15.560
0.485596,357,1526,-1054,55,637,-227,5013.173,-6085.43,-102.791,-14361.772,,,,,2007-01-05 08:12:15.580
0.505585,627,1578,-1548,-325,-264,254,5010.891,-6142.171,-92.04,-14338.468,,,,,2007-01-05 08:12:15.600
0.525605,626,1341,-1543,-289,-6,-14,5005.274,-6176.177,-99.2,-14325.769,,,,,2007-01-05 08:12:15.620
0.545624,484,1437,-1514,-227,-63,-19,5007.799,-6222.222,-89.61,-14305.01,-307,-229,-139,,2007-01-05 08:12:15.640
0.565644,399,1441,-1517,-298,-133,117,5015.291,-6262.712,-85.055,-14284.729,,,,,2007-01-05 08:12:15.660
0.585633,382,1522,-1462,-189,-47,56,5018.369,-6285.203,-86.075,-14273.76,,,,,2007-01-05 08:12:15.680
0.605622,396,1471,-1451,-127,-32,33,5014.27,-6309.578,-79.29,-14264.483,,,,,2007-01-05 08:12:15.700
0.625641,451,1327,-1456,-121,-117,3,5002.223,-6331.916,-65.675,-14258.882,,,,,2007-01-05 08:12:15.720
0.645661,482,1526,-1561,-71,-156,-41,4978.895,-6362.155,-32.979,-14253.699,-308,-218,-147,,2007-01-05 08:12:15.740
0.66568,413,1488,-1491,-104,-185,-21,4976.417,-6374.538,-33.269,-14249.03,,,,,2007-01-05 08:12:15.760
0.685669,464,1754,-1822,-69,-19,8,4981.315,-6366.427,-36.224,-14250.938,-308,-218,-147,25667,2007-01-05 08:12:15.780
0.705689,357,1667,-1419,121,190,-7,4974.127,-6332.768,-49.756,-14268.394,,,,,2007-01-05 08:12:15.800
0.725708,733,1332,-1593,121,22,-165,4960.044,-6296.403,-67.181,-14289.303,,,,,2007-01-05 08:12:15.820
0.745697,258,1674,-1334,324,340,-117,4978.495,-6271.342,-121.536,-14293.548,-320,-204,-131,,2007-01-05 08:12:15.840
0.765686,445,1407,-1623,-206,124,-102,4935.535,-6317.243,-94.729,-14288.435,,,,,2007-01-05 08:12:15.860
0.785706,403,1412,-1684,-178,-345,-145,4906.146,-6347.155,-69.155,-14285.447,,,,,2007-01-05 08:12:15.880
0.805725,466,1426,-1586,-90,-142,-57,4896.323,-6356.659,-63.66,-14284.617,,,,,2007-01-05 08:12:15.900
0.825745,516,1448,-1640,-34,-61,-21,4889.592,-6358.916,-57.806,-14285.943,,,,,2007-01-05 08:12:15.920
0.845734,497,1434,-1604,-21,-77,-9,4887.41,-6350.581,-60.568,-14290.385,-317,-196,-155,,2007-01-05 08:12:15.940
0.865723,464,1466,-1581,95,108,-62,4881.699,-6336.846,-65.478,-14298.41,,,,,2007-01-05 08:12:15.960
0.885742,340,1457,-1498,75,48,-63,4864.488,-6329.114,-63.942,-14307.704,,,,,2007-01-05 08:12:15.980
0.905762,433,1477,-1551,16,-115,-116,4825.483,-6347.681,-33.58,-14312.79,,,,,2007-01-05 08:12:16.000
0.925751,467,1467,-1641,-40,-320,-145,4783.236,-6373.147,1.976,-14315.694,,,,,2007-01-05 08:12:16.020
0.94574,647,1393,-1524,-140,-416,-120,4756.078,-6387.981,32.501,-14318.094,-323,-230,-122,,2007-01-05 08:12:16.040
0.96576,487,1493,-1613,111,-108,-110,4723.154,-6390.899,63.887,-14327.581,,,,,2007-01-05 08:12:16.060
0.985749,435,1472,-1639,44,-238,-139,4694.401,-6391.179,72.929,-14336.86,,,,,2007-01-05 08:12:16.080
1.005768,364,1443,-1539,54,-68,-154,4660.444,-6383.785,68.275,-14351.248,,,,,2007-01-05 08:12:16.100
1.025788,508,1430,-1704,19,-83,-205,4622.01,-6390.628,79.623,-14360.571,,,,,2007-01-05 08:12:16.120
1.045777,526,1419,-1574,21,-135,-183,4591.873,-6373.596,73.221,-14377.832,-328,-215,-118,,2007-01-05 08:12:16.140
1.065766,661,1322,-1721,150,5,-199,4563.172,-6330.023,60.731,-14406.249,,,,,2007-01-05 08:12:16.160
1.085785,462,1377,-1217,320,68,-232,4553.593,-6272.935,29.602,-14434.321,,,,,2007-01-05 08:12:16.180
1.105805,28,1474,-1466,262,351,-141,4570.911,-6261.936,-48.931,-14433.571,,,,,2007-01-05 08:12:16.200
1.125794,747,1411,-2315,-226,440,-47,4543.336,-6320.295,-2.387,-14416.914,,,,,2007-01-05 08:12:16.220
1.145813,425,1364,-1408,-187,-447,33,4548.898,-6284.702,-28.297,-14430.685,-319,-222,-136,,2007-01-05 08:12:16.240
1.165833,388,1587,-1585,59,48,38,4526.644,-6296.118,-1.973,-14432.734,,,,,2007-01-05 08:12:16.260
1.185822,663,1428,-1837,1,-341,-163,4485.775,-6313.521,36.06,-14437.846,-319,-222,-136,25671,2007-01-05 08:12:16.280
1.205841,683,1200,-1458,-69,-214,-69,4520.271,-6272.89,-2.155,-14444.841,,,,,2007-01-05 08:12:16.300
1.22583,301,1438,-1507,130,559,229,4579.389,-6258.955,-67.685,-14432.101,,,,,2007-01-05 08:12:16.320
1.24585,442,1488,-1927,-29,228,-14,4552.668,-6253.212,-77.19,-14442.992,-331,-236,-98,,2007-01-05 08:12:16.340
1.265869,690,1309,-1708,135,-100,-235,4500.348,-6217.419,-53.696,-14474.913,,,,,2007-01-05 08:12:16.360
1.285858,649,1349,-1419,336,-115,-288,4482.954,-6153.367,-87.779,-14507.478,,,,,2007-01-05 08:12:16.380
1.305878,513,1419,-1301,318,465,-175,4534.004,-6104.236,-178.914,-14511.531,,,,,2007-01-05 08:12:16.400
1.325897,235,1470,-1577,-8,622,145,4579.441,-6092.884,-251.413,-14500.955,,,,,2007-01-05 08:12:16.420
1.345886,589,1258,-3070,-69,367,51,4577.297,-6081.124,-257.863,-14506.455,-333,-217,-123,,2007-01-05 08:12:16.440
1.365906,132,-20,2057,360,-237,-61,4557.065,-5999.18,-231.489,-14547.331,,,,,2007-01-05 08:12:16.460
1.385895,415,1935,-733,315,393,260,4692.561,-6084.661,-325.188,-14466.736,,,,,2007-01-05 08:12:16.480
1.405915,-514,1502,-1957,-596,824,451,4780.694,-6184.834,-297.622,-14395.821,,,,,2007-01-05 08:12:16.500
1.425904,506,1429,-2075,-560,-756,556,4702.808,-6264.825,-140.612,-14389.274,,,,,2007-01-05 08:12:16.520
1.445923,410,1723,-1492,17,-952,-277,4622.323,-6270.158,-75.373,-14413.5,-332,-218,-119,,2007-01-05 08:12:16.540
1.465943,362,1661,-1414,24,-320,-203,4570.362,-6296.074,-48.069,-14418.889,,,,,2007-01-05 08:12:16.560
1.485932,722,1272,-1708,-148,-292,-186,4556.337,-6310.558,-53.044,-14416.978,,,,,2007-01-05 08:12:16.580
1.506012,496,1363,-1623,-6,197,-41,4576.868,-6299.567,-75.447,-14415.182,,,,,2007-01-05 08:12:16.600
1.525971,372,1552,-1653,-10,171,77,4594.991,-6299.855,-92.225,-14409.192,,,,,2007-01-05 08:12:16.620
1.54596,558,1401,-1642,-35,55,25,4590.054,-6260.775,-129.887,-14427.497,-333,-229,-93,,2007-01-05 08:12:16.640
1.565979,1253,1569,-998,323,393,-213,4577.656,-6158.973,-223.036,-14474.039,,,,,2007-01-05 08:12:16.660
1.585968,871,696,-775,675,429,-493,4579.709,-5984.998,-57.78,-14547.789,,,,,2007-01-05 08:12:16.680
1.605988,225,714,-1303,2640,-1287,950,4598.149,-5771.152,59.224,-14628.149,,,,,2007-01-05 08:12:16.700
1.625977,293,1621,-1414,690,-63,89,4583.731,-5777.875,76.841,-14629.938,,,,,2007-01-05 08:12:16.720
1.645996,687,1420,-1900,-186,-105,-145,4567.992,-5788.859,78.084,-14630.513,-320,-216,-140,,2007-01-05 08:12:16.740
1.666016,955,1634,-1855,101,67,-29,4621.54,-5704.368,48.35,-14647.001,,,,,2007-01-05 08:12:16.760
1.686005,12,1231,-1493,644,637,323,4743.284,-5531.369,75.745,-14674.294,-320,-216,-140,25656,2007-01-05 08:12:16.780
1.706024,268,769,-1539,1105,28,617,4735.153,-5423.037,180.111,-14716.385,,,,,2007-01-05 08:12:16.800
1.726013,540,1246,-1674,518,-508,-210,4690.965,-5437.212,212.721,-14724.869,,,,,2007-01-05 08:12:16.820
1.746033,451,1461,-1720,-273,-94,-82,4685.128,-5488.6,197.187,-14707.868,-343,-229,-98,,2007-01-05 08:12:16.840
1.766022,548,1339,-1854,-275,-22,-19,4688.191,-5489.734,192.66,-14706.529,,,,,2007-01-05 08:12:16.860
1.786042,537,1271,-1858,146,62,35,4704.546,-5449.133,199.312,-14716.314,,,,,2007-01-05 08:12:16.880
1.806031,506,1391,-1868,240,67,99,4722.791,-5402.581,225.292,-14727.255,,,,,2007-01-05 08:12:16.900
1.82605,654,1604,-1912,374,-116,137,4715.786,-5321.089,302.704,-14757.75,,,,,2007-01-05 08:12:16.920
1.84607,503,1236,-1775,722,-379,22,4717.619,-5172.898,418.647,-14806.936,-338,-255,-75,,2007-01-05 08:12:16.940
1.866089,414,1010,-1821,1162,-327,225,4744.376,-4999.447,539.344,-14853.988,,,,,2007-01-05 08:12:16.960
1.886078,440,1086,-1810,1140,-286,295,4756.899,-4840.602,663.279,-14897.516,,,,,2007-01-05 08:12:16.980
1.906189,767,1368,-1998,1118,-357,254,4774.523,-4663.687,785.237,-14942.315,,,,,2007-01-05 08:12:17.000
1.926117,534,796,-1663,1274,-291,302,4817.346,-4431.643,915.07,-14991.724,,,,,2007-01-05 08:12:17.020
1.946137,582,776,-1750,1615,-169,454,4861.153,-4228.525,1012.572,-15029.934,-338,-265,-79,,2007-01-05 08:12:17.040
1.966126,463,810,-1791,987,-82,264,4882.477,-4120.395,1080.416,-15048.318,,,,,2007-01-05 08:12:17.060
1.986145,542,886,-1855,561,-177,163,4880.541,-4061.11,1141.505,-15060.548,,,,,2007-01-05 08:12:17.080
2.006165,583,870,-1956,385,-212,57,4878.522,-4016.029,1190.164,-15069.521,,,,,2007-01-05 08:12:17.100
2.026154,575,828,-1984,308,-156,51,4879.462,-3978.954,1224.031,-15076.338,,,,,2007-01-05 08:12:17.120
2.046173,611,946,-2023,219,-96,48,4881.625,-3948.69,1243.743,-15081.98,-331,-281,-82,,2007-01-05 08:12:17.140
2.066162,613,953,-2050,206,-21,53,4889.838,-3909.433,1261.008,-15088.112,,,,,2007-01-05 08:12:17.160
2.086182,639,942,-2070,263,-22,84,4895.618,-3861.412,1288.405,-15096.286,,,,,2007-01-05 08:12:17.180
2.106171,586,921,-2012,336,-61,83,4903.156,-3809.1,1323.163,-15104.122,,,,,2007-01-05 08:12:17.200
2.12619,620,952,-2063,338,-109,79,4901.661,-3761.356,1359.691,-15113.325,,,,,2007-01-05 08:12:17.220
2.146179,926,807,-2103,329,-87,44,4906.967,-3707.127,1386.436,-15122.569,-330,-308,-80,,2007-01-05 08:12:17.240
2.166199,650,921,-2050,361,-20,106,4923.008,-3644.085,1412.966,-15130.221,,,,,2007-01-05 08:12:17.260
2.186219,707,920,-2195,383,-15,92,4930.982,-3591.007,1425.275,-15139.158,-330,-308,-80,25675,2007-01-05 08:12:17.280
2.206238,701,966,-2163,278,67,61,4942.703,-3542.709,1425.675,-15146.676,,,,,2007-01-05 08:12:17.300
2.226227,678,794,-2150,260,112,89,4953.679,-3505.062,1424.309,-15151.976,,,,,2007-01-05 08:12:17.320
2.246216,701,854,-2092,128,77,36,4964.526,-3500.52,1406.396,-15151.149,-320,-323,-85,,2007-01-05 08:12:17.340
2.266266,695,1015,-2100,-94,131,47,4980.866,-3517.048,1371.061,-15145.196,,,,,2007-01-05 08:12:17.360
2.286255,661,888,-2138,-174,215,75,5002.668,-3524.578,1335.193,-15139.463,,,,,2007-01-05 08:12:17.380
2.306275,663,898,-2147,-100,182,55,5017.343,-3529.488,1306.056,-15136.005,,,,,2007-01-05 08:12:17.400
2.326264,673,911,-2150,-73,151,45,5028.523,-3525.535,1286.73,-15134.871,,,,,2007-01-05 08:12:17.420
2.346253,730,872,-2146,23,106,35,5038.792,-3503.733,1274.695,-15137.537,-327,-339,-80,,2007-01-05 08:12:17.440
2.366272,690,890,-2131,132,141,64,5059.875,-3459.825,1257.47,-15142.044,,,,,2007-01-05 08:12:17.460
2.386292,645,783,-2024,260,223,115,5087.714,-3384.996,1239.911,-15151.073,,,,,2007-01-05 08:12:17.480
2.406311,676,730,-1974,411,293,156,5126.953,-3295.473,1213.819,-15159.693,,,,,2007-01-05 08:12:17.500
2.4263,722,797,-2145,423,397,225,5187.347,-3180.153,1171.008,-15167.143,,,,,2007-01-05 08:12:17.520
2.44632,578,901,-2091,627,584,370,5282.24,-2967.466,1138.613,-15179.957,-324,-338,-82,,2007-01-05 08:12:17.540
2.466309,598,323,-1859,1390,701,654,5412.448,-2592.863,1161.978,-15200.911,,,,,2007-01-05 08:12:17.560
2.486328,590,208,-2196,2334,701,911,5539.406,-2184.386,1206.41,-15215.895,,,,,2007-01-05 08:12:17.580
2.506317,586,-119,-2094,2135,652,784,5639.501,-1788.198,1249.378,-15227.372,,,,,2007-01-05 08:12:17.600
2.526367,290,316,-1789,2094,602,606,5696.635,-1435.034,1294.092,-15239.743,,,,,2007-01-05 08:12:17.620
2.546326,499,40,-1808,1929,496,359,5705.116,-1125.294,1308.79,-15261.319,-330,-349,-99,,2007-01-05 08:12:17.640
2.566345,363,41,-2073,1471,550,66,5720.288,-896.614,1303.998,-15271.195,,,,,2007-01-05 08:12:17.660
2.586365,78,139,-1856,1067,435,269,5751.624,-737.743,1310.952,-15267.331,,,,,2007-01-05 08:12:17.680
2.606385,81,267,-1913,767,266,187,5779.844,-647.03,1318.516,-15260.135,,,,,2007-01-05 08:12:17.700
2.626374,423,175,-2224,313,69,233,5813.392,-600.552,1331.947,-15248.12,,,,,2007-01-05 08:12:17.720
2.646393,633,-171,-2090,246,-70,196,5823.506,-567.447,1353.511,-15243.629,-332,-363,-94,,2007-01-05 08:12:17.740
2.666413,389,-70,-2348,113,152,136,5852.14,-557.963,1375.525,-15231.037,,,,,2007-01-05 08:12:17.760
2.686402,636,8,-2339,94,-25,61,5880.576,-548.086,1378.975,-15220.128,-332,-363,-94,25683,2007-01-05 08:12:17.780
2.706391,223,-224,-2133,-18,52,247,5921.071,-541.179,1376.008,-15204.936,,,,,2007-01-05 08:12:17.800
2.726471,259,194,-1829,-10,36,212,5956.774,-553.121,1368.93,-15191.194,,,,,2007-01-05 08:12:17.820
2.746399,353,-22,-2150,-189,11,181,5990.936,-591.243,1359.836,-15177.134,-341,-394,-76,,2007-01-05 08:12:17.840
2.766419,567,-67,-2167,-223,-40,150,6017.893,-598.952,1358.769,-15166.258,,,,,2007-01-05 08:12:17.860
2.786438,-267,1069,-54,-3,-4,196,6030.528,-616.907,1387.965,-15157.874,,,,,2007-01-05 08:12:17.880
2.806427,1087,-470,-2746,-63,-321,-55,5968.115,-673.621,1457.487,-15173.629,,,,,2007-01-05 08:12:17.900
2.826447,304,-105,-2566,138,-350,-571,6029.048,-662.079,1397.946,-15155.64,,,,,2007-01-05 08:12:17.920
2.846466,657,84,-2084,-334,178,777,5993.126,-654.869,1442.083,-15166.061,-349,-396,-71,,2007-01-05 08:12:17.940
2.866455,393,-343,-2073,446,143,-507,5998.918,-605.438,1417.347,-15168.157,,,,,2007-01-05 08:12:17.960
2.886475,588,499,-2101,161,205,39,6025.121,-537.192,1400.198,-15161.933,,,,,2007-01-05 08:12:17.980
2.906494,545,215,-2064,134,130,137,6062.233,-438.198,1348.465,-15155.012,,,,,2007-01-05 08:12:18.000
2.926483,896,-309,-2419,822,695,408,6094.908,-266.544,1332.752,-15147.286,,,,,2007-01-05 08:12:18.020
2.946503,803,-152,-2883,780,586,190,6148.856,-89.209,1299.336,-15130.459,-338,-392,-70,,2007-01-05 08:12:18.041
2.966492,347,365,-1483,1035,521,403,6219.808,133.955,1297.151,-15101.287,,,,,2007-01-05 08:12:18.060
2.986511,4,-1,-2074,1205,412,595,6256.102,330.084,1348.275,-15078.787,,,,,2007-01-05 08:12:18.081
3.006531,361,5,-1453,1255,60,238,6262.294,507.871,1399.531,-15066.602,,,,,2007-01-05 08:12:18.101
3.02652,98,-501,-1564,922,145,212,6276.031,618.4,1453.496,-15051.638,,,,,2007-01-05 08:12:18.121
3.04654,502,-435,-1661,574,-88,84,6271.454,655.189,1495.696,-15047.854,-352,-392,-73,,2007-01-05 08:12:18.141
3.066529,654,-473,-1686,120,-146,29,6286.796,665.901,1536.615,-15036.856,,,,,2007-01-05 08:12:18.161
3.086548,563,-396,-1806,91,-146,110,6306.415,664.501,1600.183,-15022.065,,,,,2007-01-05 08:12:18.181
3.106537,892,-975,-1928,144,-344,112,6326.296,663.204,1654.912,-15007.826,,,,,2007-01-05 08:12:18.201
3.126557,413,-328,-2134,38,-170,189,6351.54,626.788,1709.058,-14992.652,,,,,2007-01-05 08:12:18.221
3.146576,522,-237,-2529,-47,-440,83,6367.875,598.623,1762.558,-14980.676,-357,-409,-59,,2007-01-05 08:12:18.241
3.166565,83,-229,-2186,19,-326,51,6340.195,591.948,1857.002,-14981.271,,,,,2007-01-05 08:12:18.261
3.186585,566,-544,-2224,279,-574,-398,6283.753,591.732,1947.173,-14993.607,-357,-409,-59,25677,2007-01-05 08:12:18.281
3.206574,745,-288,-2282,189,-465,-269,6248.052,581.456,2025.379,-14998.568,,,,,2007-01-05 08:12:18.301
3.226593,804,-17,-2441,171,-455,-179,6191.076,599.622,2112.408,-15009.47,,,,,2007-01-05 08:12:18.321
3.246582,694,-154,-1852,418,-348,-323,6129.86,663.49,2187.771,-15021.108,-352,-428,-66,,2007-01-05 08:12:18.341
3.266602,283,53,-1507,583,-204,-282,6077.99,737.528,2262.204,-15027.706,,,,,2007-01-05 08:12:18.361
3.286591,654,115,-1922,609,-194,-227,6057.583,837.071,2330.107,-15020.354,,,,,2007-01-05 08:12:18.381
3.30661,682,-205,-1762,800,-91,78,6054.914,978.266,2384.747,-15004.314,,,,,2007-01-05 08:12:18.401
3.32663,141,-688,-2112,892,77,161,6075.436,1125.511,2414.693,-14980.888,,,,,2007-01-05 08:12:18.421
3.346649,54,-108,-2691,770,123,289,6082.73,1252.432,2438.772,-14963.945,-346,-432,-53,,2007-01-05 08:12:18.441
3.366669,431,-609,-2816,760,148,33,6048.391,1397.593,2437.842,-14965.161,,,,,2007-01-05 08:12:18.461
3.386658,253,-849,-2781,761,384,-80,5997.808,1525.859,2432.415,-14973.872,,,,,2007-01-05 08:12:18.481
3.406647,481,-813,-2816,632,333,-257,5934.425,1620.769,2412.384,-14992.383,,,,,2007-01-05 08:12:18.501
3.426667,494,-478,-2878,337,391,-271,5882.497,1673.476,2372.551,-15013.399,,,,,2007-01-05 08:12:18.521
3.446656,576,-924,-2381,229,335,-273,5830.558,1700.916,2325.076,-15037.983,-330,-436,-60,,2007-01-05 08:12:18.541
3.466675,404,-651,-2336,-53,370,-211,5811.956,1680.758,2263.989,-15056.759,,,,,2007-01-05 08:12:18.561
3.486695,440,-535,-2235,-262,233,-111,5789.945,1647.858,2229.226,-15074.053,,,,,2007-01-05 08:12:18.581
3.506714,157,-723,-1950,-181,46,-92,5800.875,1599.917,2190.37,-15080.71,,,,,2007-01-05 08:12:18.601
3.526703,538,-340,-1884,-456,29,68,5802.699,1517.419,2179.511,-15090.105,,,,,2007-01-05 08:12:18.621
3.546723,602,-330,-1698,-413,-51,-160,5791.795,1441.814,2132.83,-15108.367,-324,-468,-47,,2007-01-05 08:12:18.641
3.566712,243,-40,-1785,-538,167,-65,5776.632,1359.544,2092.451,-15127.434,,,,,2007-01-05 08:12:18.661
3.586731,695,113,-1967,-500,56,-224,5757.637,1305.33,2062.211,-15143.594,,,,,2007-01-05 08:12:18.681
3.60672,-489,-1342,-991,-203,68,-92,5744.956,1278.734,2055.385,-15151.605,,,,,2007-01-05 08:12:18.701
3.62674,700,71,-2209,-179,-102,-300,5754.399,1248.872,2054.322,-15150.657,,,,,2007-01-05 08:12:18.721
3.646759,257,-301,-1871,153,-11,88,5732.013,1256.89,2082.696,-15154.605,-331,-466,-34,,2007-01-05 08:12:18.741
3.666748,456,-398,-1897,90,-123,-92,5722.237,1264.427,2110.169,-15153.872,,,,,2007-01-05 08:12:18.761
3.686768,442,-197,-2482,36,-126,-89,5734.756,1257.81,2125.349,-15147.568,-331,-466,-34,25699,2007-01-05 08:12:18.781
3.706787,497,251,-2517,-27,-128,141,5759.391,1260.339,2167.458,-15132.036,,,,,2007-01-05 08:12:18.801
3.726776,402,-406,-2396,250,-270,233,5776.483,1312.991,2237.178,-15110.882,,,,,2007-01-05 08:12:18.821
3.746796,509,-654,-2004,550,-296,108,5791.663,1376.531,2290.685,-15091.388,-338,-473,-41,,2007-01-05 08:12:18.841
3.766785,421,-518,-1994,354,-106,201,5833.111,1419.943,2310.599,-15068.349,,,,,2007-01-05 08:12:18.861
3.786804,200,-253,-2082,191,-25,302,5867.159,1448.781,2313.035,-15052.003,,,,,2007-01-05 08:12:18.881
3.806793,232,-341,-2151,145,22,170,5869.434,1483.448,2304.761,-15049.008,,,,,2007-01-05 08:12:18.901
3.826813,340,-411,-2251,178,154,8,5863.308,1522.101,2291.548,-15049.554,,,,,2007-01-05 08:12:18.921
3.846833,495,-613,-2187,207,143,4,5866.872,1560.48,2279.156,-15046.116,-340,-463,-41,,2007-01-05 08:12:18.941
3.866822,532,-714,-2028,161,130,108,5888.299,1587.367,2266.481,-15036.845,,,,,2007-01-05 08:12:18.961
3.886841,497,-590,-1941,67,83,179,5916.955,1595.818,2254.5,-15026.499,,,,,2007-01-05 08:12:18.981
3.90683,426,-504,-1914,-37,43,178,5941.186,1592.364,2247.697,-15018.321,,,,,2007-01-05 08:12:19.001
3.92685,324,-414,-1976,-45,4,112,5948.961,1589.567,2245.342,-15015.892,,,,,2007-01-05 08:12:19.021
3.94693,252,-346,-2244,3,3,0,5936.425,1592.946,2243.166,-15020.819,-338,-468,-41,,2007-01-05 08:12:19.041
3.966858,288,-590,-2576,47,51,-124,5918.513,1601.096,2227.894,-15029.292,,,,,2007-01-05 08:12:19.061
3.986878,314,-698,-2639,6,145,-96,5907.35,1605.945,2194.351,-15038.099,,,,,2007-01-05 08:12:19.081
4.006867,391,-615,-2755,-62,213,-22,5915.697,1607.298,2132.862,-15043.519,,,,,2007-01-05 08:12:19.101
4.026886,403,-590,-2395,-130,257,130,5917.591,1616.443,2090.94,-15047.678,,,,,2007-01-05 08:12:19.121
4.046906,445,-555,-2118,-23,263,14,5912.79,1630.114,2048.197,-15053.968,-328,-480,-43,,2007-01-05 08:12:19.141
4.066895,263,-476,-2031,1,273,-44,5881.274,1646.311,2020.33,-15068.31,,,,,2007-01-05 08:12:19.161
4.086914,375,-537,-1901,72,183,-247,5833.534,1664.045,1989.351,-15089.027,,,,,2007-01-05 08:12:19.181
4.106903,414,-564,-1946,53,201,-250,5780.459,1685.024,1971.955,-15109.395,,,,,2007-01-05 08:12:19.201
4.126923,523,-704,-1913,134,156,-326,5730.86,1704.138,1946.014,-15129.495,,,,,2007-01-05 08:12:19.221
4.146942,550,-601,-1990,17,238,-210,5700.616,1710.862,1911.262,-15144.584,-338,-487,-36,,2007-01-05 08:12:19.241
4.166931,649,-567,-2099,-46,232,-143,5680.244,1711.497,1868.869,-15157.452,,,,,2007-01-05 08:12:19.261
4.186951,554,-426,-2218,-98,281,-72,5671.009,1712.066,1831.688,-15165.383,-338,-487,-36,25665,2007-01-05 08:12:19.281
4.20694,458,-520,-2137,-31,186,-30,5665.076,1719.747,1805.602,-15169.859,,,,,2007-01-05 08:12:19.301
4.226959,223,-459,-2279,-18,184,22,5669.35,1728.647,1788.6,-15169.265,,,,,2007-01-05 08:12:19.321
4.246949,322,-581,-2192,51,42,25,5667.051,1736.811,1781.564,-15170.019,-343,-478,-52,,2007-01-05 08:12:19.341
4.266968,171,-534,-2280,-8,70,11,5673.414,1729.498,1771.034,-15169.709,,,,,2007-01-05 08:12:19.361
4.286988,487,-604,-1962,-53,-74,39,5672.571,1718.305,1764.428,-15172.066,,,,,2007-01-05 08:12:19.381
4.306977,478,-370,-2032,-156,91,61,5690.71,1701.114,1761.742,-15167.522,,,,,2007-01-05 08:12:19.401
4.326996,312,-299,-2136,-25,-82,49,5719.529,1688.486,1746.318,-15159.875,,,,,2007-01-05 08:12:19.421
4.347016,389,-431,-2153,-50,-107,203,5745.772,1693.809,1745.316,-15149.469,-338,-473,-50,,2007-01-05 08:12:19.441
4.367005,461,-662,-2248,43,-34,194,5766.768,1707.37,1758.864,-15138.398,,,,,2007-01-05 08:12:19.461
4.387024,537,-670,-2284,90,-17,135,5797.493,1717.201,1766.546,-15124.65,,,,,2007-01-05 08:12:19.481
4.407013,374,-591,-2149,48,-49,205,5836.099,1716.794,1778.527,-15108.436,,,,,2007-01-05 08:12:19.501
4.427033,358,-444,-1945,-16,-114,234,5873.457,1707.889,1790.759,-15093.516,,,,,2007-01-05 08:12:19.521
4.447022,344,-380,-1945,-54,-102,207,5912.427,1693.253,1798.516,-15079.021,-341,-479,-55,,2007-01-05 08:12:19.541
4.467041,384,-463,-2015,-76,-98,238,5955.362,1683.104,1804.303,-15062.561,,,,,2007-01-05 08:12:19.561
4.487061,381,-516,-2058,-46,-68,265,5999.834,1677.783,1812.776,-15044.478,,,,,2007-01-05 08:12:19.581
4.50705,402,-566,-2111,-10,-101,256,6040.171,1675.761,1823.527,-15027.253,,,,,2007-01-05 08:12:19.601
4.527069,434,-623,-2143,-12,-88,246,6080.096,1671.858,1833.651,-15010.346,,,,,2007-01-05 08:12:19.621
4.547089,385,-481,-2257,-34,-68,245,6124.029,1663.191,1838.535,-14992.841,-343,-473,-45,,2007-01-05 08:12:19.641
4.567078,340,-512,-2187,-38,-96,240,6160.981,1657.219,1843.494,-14977.747,,,,,2007-01-05 08:12:19.661
4.587097,337,-582,-2108,-41,-74,227,6190.276,1652.448,1853.069,-14965.008,,,,,2007-01-05 08:12:19.681
4.607086,317,-523,-2113,-27,-61,167,6218.462,1646.471,1861.113,-14952.978,,,,,2007-01-05 08:12:19.701
4.627106,377,-500,-2240,-14,-79,143,6242.652,1641.431,1868.371,-14942.544,,,,,2007-01-05 08:12:19.721
4.647126,447,-567,-2252,-8,-78,136,6263.572,1640.75,1874.974,-14933.034,-340,-475,-41,,2007-01-05 08:12:19.741
4.667115,392,-554,-2235,4,-49,137,6277.97,1643.31,1888.031,-14925.059,,,,,2007-01-05 08:12:19.761
4.687134,361,-472,-1984,61,-88,48,6285.256,1648.122,1903.387,-14919.511,-340,-475,-41,25683,2007-01-05 08:12:19.781
4.707123,265,-475,-2029,52,-89,40,6287.837,1650.3,1926.121,-14915.264,,,,,2007-01-05 08:12:19.801
4.727143,372,-512,-2099,68,-119,6,6288.292,1652.483,1948.035,-14911.984,,,,,2007-01-05 08:12:19.821
4.747162,385,-491,-2010,69,-86,-5,6288.839,1656.795,1966.027,-14908.914,-338,-475,-52,,2007-01-05 08:12:19.841
4.767151,488,-717,-2487,69,-58,-18,6293.209,1660.94,1969.758,-14906.116,,,,,2007-01-05 08:12:19.861
4.78714,343,-499,-1841,37,-9,55,6296.051,1664.964,1972.693,-14904.078,,,,,2007-01-05 08:12:19.881
4.80716,331,-444,-2055,2,8,-25,6296.838,1661.777,1969.601,-14904.511,,,,,2007-01-05 08:12:19.901
4.827179,420,-595,-2143,-23,-5,23,6296.888,1658.676,1959.853,-14906.119,,,,,2007-01-05 08:12:19.921
4.847168,413,-431,-2021,-53,80,7,6294.637,1661.098,1952.302,-14907.791,-343,-468,-43,,2007-01-05 08:12:19.941
4.867188,336,-558,-2155,24,66,-45,6283.494,1666.218,1946.001,-14912.744,,,,,2007-01-05 08:12:19.961
4.887207,450,-588,-2368,53,28,-75,6266.419,1679.257,1948.611,-14918.124,,,,,2007-01-05 08:12:19.981
4.907227,439,-564,-2344,102,29,-109,6246.266,1692.814,1953.97,-14924.342,,,,,2007-01-05 08:12:20.001
4.927216,451,-836,-1989,105,-32,-138,6216.8,1698.499,1957.631,-14935.515,,,,,2007-01-05 08:12:20.021
4.947205,425,-615,-1984,-28,85,-160,6212.961,1680.202,1928.673,-14942.948,-347,-468,-47,,2007-01-05 08:12:20.041
4.967224,410,-480,-2201,-210,99,15,6202.349,1657.341,1915.697,-14951.576,,,,,2007-01-05 08:12:20.061
4.987244,423,-474,-2481,-74,47,-158,6177.981,1649.098,1911.813,-14963.069,,,,,2007-01-05 08:12:20.081
5.007263,368,-500,-2312,33,15,-179,6148.497,1656.335,1919.394,-14973.44,,,,,2007-01-05 08:12:20.101
5.027252,312,-489,-2154,96,-14,-191,6115.852,1669.043,1931.853,-14983.792,,,,,2007-01-05 08:12:20.121
5.047241,558,-694,-2085,100,-27,-199,6081.224,1681.112,1938.766,-14995.639,-349,-462,-65,,2007-01-05 08:12:20.141
5.067261,389,-319,-1837,53,121,-179,6049.779,1687.801,1941.124,-15007.297,,,,,2007-01-05 08:12:20.161
5.087281,373,-480,-2092,103,53,-280,6013.029,1696.33,1933.036,-15022.142,,,,,2007-01-05 08:12:20.181
5.10727,439,-603,-2056,39,95,-166,5984.152,1705.173,1916.096,-15034.837,,,,,2007-01-05 08:12:20.201
5.127289,386,-541,-2030,4,161,-147,5958.913,1707.094,1889.292,-15048.03,,,,,2007-01-05 08:12:20.221
5.147278,341,-460,-1965,-43,160,-152,5926.386,1706.037,1871.677,-15063.188,-338,-471,-45,,2007-01-05 08:12:20.241
5.167359,417,-446,-2285,-19,98,-220,5884.981,1708.92,1865.349,-15079.871,,,,,2007-01-05 08:12:20.261
5.187317,510,-481,-2160,59,66,-262,5834.752,1720.823,1864.089,-15098.18,-338,-471,-45,25693,2007-01-05 08:12:20.281
5.207306,401,-607,-2135,93,97,-298,5787.864,1732.307,1855.815,-15115.923,,,,,2007-01-05 08:12:20.301
5.227326,462,-623,-2114,58,128,-252,5753.198,1740.838,1835.671,-15130.629,,,,,2007-01-05 08:12:20.321
5.247345,401,-544,-2131,-9,180,-169,5724.544,1742.052,1810.887,-15144.338,-343,-468,-41,,2007-01-05 08:12:20.341
5.267334,410,-540,-2146,-25,158,-180,5690.814,1744.295,1787.621,-15159.549,,,,,2007-01-05 08:12:20.361
5.287354,407,-518,-2205,-22,162,-194,5654.618,1748.467,1769.405,-15174.742,,,,,2007-01-05 08:12:20.381
5.307343,363,-461,-2085,16,137,-217,5615.124,1757.337,1756.856,-15189.833,,,,,2007-01-05 08:12:20.401
5.327362,319,-480,-2046,55,117,-231,5575.794,1768.103,1748.671,-15204.01,,,,,2007-01-05 08:12:20.421
5.347351,405,-542,-2148,60,88,-219,5537.442,1778.692,1742.289,-15217.518,-351,-476,-53,,2007-01-05 08:12:20.441
5.367371,399,-509,-2096,66,97,-215,5501.257,1790.147,1732.635,-15230.396,,,,,2007-01-05 08:12:20.461
5.38739,392,-536,-2153,53,112,-195,5469.02,1801.201,1720.112,-15242.117,,,,,2007-01-05 08:12:20.481
5.407379,476,-595,-2312,55,119,-167,5436.18,1819.162,1711.228,-15252.728,,,,,2007-01-05 08:12:20.501
5.427399,474,-595,-2265,110,130,-168,5408.307,1840.667,1698.212,-15261.51,,,,,2007-01-05 08:12:20.521
5.447388,377,-600,-2098,101,137,-135,5383.301,1858.761,1686.254,-15269.481,-341,-474,-55,,2007-01-05 08:12:20.541
5.467407,339,-619,-2100,73,117,-122,5365.163,1867.837,1676.801,-15275.797,,,,,2007-01-05 08:12:20.561
5.487427,317,-568,-2022,17,70,-91,5350.798,1867.737,1673.053,-15281.258,,,,,2007-01-05 08:12:20.581
5.507416,259,-441,-1940,-11,18,-84,5336.3,1862.281,1676.769,-15286.585,,,,,2007-01-05 08:12:20.601
5.527436,401,-518,-2201,-13,-33,-98,5320.486,1857.55,1684.347,-15291.839,,,,,2007-01-05 08:12:20.621
5.547425,453,-517,-2215,14,-36,-97,5309.543,1858.128,1689.279,-15295.028,-338,-478,-38,,2007-01-05 08:12:20.641
5.567444,404,-625,-2224,17,0,-40,5310.946,1860.213,1692.132,-15293.972,,,,,2007-01-05 08:12:20.661
5.587433,385,-566,-2209,67,99,-128,5313.934,1860.866,1692.296,-15292.837,,,,,2007-01-05 08:12:20.681
5.607453,397,-550,-2228,-21,10,28,5291.629,1866.77,1686.727,-15300.465,,,,,2007-01-05 08:12:20.701
5.627472,116,-631,-2037,93,91,-198,5283.483,1870.402,1683.588,-15303.182,,,,,2007-01-05 08:12:20.721
5.647461,261,-466,-2182,-45,-5,13,5283.658,1862.044,1689.561,-15303.482,-337,-484,-44,,2007-01-05 08:12:20.741
5.667481,402,-570,-2270,-16,-59,-59,5269.506,1859.001,1692.797,-15308.373,,,,,2007-01-05 08:12:20.761
5.6875,328,-389,-1852,5,24,-91,5253.528,1852.695,1691.173,-15314.808,-337,-484,-44,25681,2007-01-05 08:12:20.781
5.707489,211,-461,-1966,-49,8,-118,5235.11,1837.991,1696.885,-15322.253,,,,,2007-01-05 08:12:20.801
5.727509,328,-628,-2127,-57,-80,-132,5215.622,1818.574,1709.156,-15329.85,,,,,2007-01-05 08:12:20.822
5.747528,307,-575,-2249,-89,-75,-125,5201.222,1795.189,1716.297,-15336.699,-338,-485,-43,,2007-01-05 08:12:20.842
5.767517,189,-529,-2895,-105,-59,-127,5185.267,1766.536,1718.111,-15345.224,,,,,2007-01-05 08:12:20.862
5.787537,668,-541,-1984,-234,-69,-131,5171.156,1745.109,1707.654,-15353.602,,,,,2007-01-05 08:12:20.882
5.807526,614,-406,-2298,-167,124,-132,5162.164,1736.363,1696.718,-15358.831,,,,,2007-01-05 08:12:20.902
5.827545,422,-462,-2309,12,77,-131,5154.847,1741.551,1681.357,-15362.39,,,,,2007-01-05 08:12:20.922
5.847534,425,-650,-2196,18,59,-7,5144.173,1755.923,1667.592,-15365.832,-345,-490,-41,,2007-01-05 08:12:20.942
5.867554,313,-500,-2337,47,53,-62,5126.227,1774.225,1657.032,-15370.869,,,,,2007-01-05 08:12:20.962
5.887543,364,-612,-2474,95,95,-100,5102.13,1787.018,1649.828,-15378.177,,,,,2007-01-05 08:12:20.982
5.907563,320,-655,-2219,61,59,-110,5073.907,1795.95,1645.452,-15386.941,,,,,2007-01-05 08:12:21.002
5.927582,361,-489,-2210,44,56,-159,5041.802,1797.38,1647.038,-15397.154,,,,,2007-01-05 08:12:21.022
5.947571,199,-957,-1815,-2,19,-193,5011.398,1790.956,1650.204,-15407.486,-339,-488,-44,,2007-01-05 08:12:21.042
5.967591,401,-789,-2156,-40,-16,-184,4986.626,1779.704,1652.063,-15416.625,,,,,2007-01-05 08:12:21.062
5.98761,346,-591,-1952,-68,-2,-139,4968.248,1765.958,1653.755,-15423.956,,,,,2007-01-05 08:12:21.082
6.007599,605,-690,-1901,-58,-22,-105,4954.308,1758.911,1652.119,-15429.42,,,,,2007-01-05 08:12:21.102
6.027619,403,-624,-2212,-44,52,-58,4942.471,1747.559,1656.527,-15434.033,,,,,2007-01-05 08:12:21.122
6.047638,399,-534,-2081,-48,-23,-89,4928.707,1736.475,1655.75,-15439.768,-346,-488,-44,,2007-01-05 08:12:21.142
6.067627,388,-517,-2082,-97,61,-65,4915.873,1726.535,1658.969,-15444.628,,,,,2007-01-05 08:12:21.162
6.087647,456,-366,-2282,-12,-4,-109,4909.136,1724.387,1653.85,-15447.559,,,,,2007-01-05 08:12:21.182
6.107636,444,-429,-2319,5,29,-17,4908.365,1728.533,1654.262,-15447.297,,,,,2007-01-05 08:12:21.202
6.127655,350,-615,-2171,44,11,6,4897.627,1742.714,1658.911,-15448.613,,,,,2007-01-05 08:12:21.222
6.147644,399,-677,-2215,113,-11,-137,4898.277,1754.083,1658.132,-15447.204,-339,-476,-39,,2007-01-05 08:12:21.242
6.167664,246,-608,-2061,35,41,77,4892.542,1762.091,1664.379,-15447.438,,,,,2007-01-05 08:12:21.262
6.187653,126,-524,-2026,45,-30,-91,4893.157,1761.505,1660.322,-15447.747,-339,-476,-39,25687,2007-01-05 08:12:21.282
6.207672,394,-478,-2152,-24,-48,2,4890.941,1758.259,1658.959,-15448.965,,,,,2007-01-05 08:12:21.302
6.227692,342,-450,-2176,-29,12,9,4896.362,1752.585,1654.3,-15448.392,,,,,2007-01-05 08:12:21.322
6.247681,465,-455,-2072,-40,22,47,4904.91,1748.161,1648.925,-15446.756,-338,-497,-45,,2007-01-05 08:12:21.342
6.2677,409,-501,-2099,-40,37,60,4915.176,1742.898,1642.366,-15444.786,,,,,2007-01-05 08:12:21.362
6.287689,444,-465,-2129,-34,13,44,4924.185,1736.834,1635.248,-15443.355,,,,,2007-01-05 08:12:21.382
6.307709,482,-487,-2185,-54,22,50,4927.332,1730.534,1637.141,-15442.858,,,,,2007-01-05 08:12:21.402
6.327729,481,-479,-2294,-32,4,4,4933.563,1723.574,1636.312,-15441.734,,,,,2007-01-05 08:12:21.422
6.347718,-941,-2422,-1322,-24,-16,22,4932.197,1712.912,1643.352,-15442.61,-334,-484,-37,,2007-01-05 08:12:21.442
6.367737,1053,93,-2201,-105,-135,-144,4894.518,1667.148,1659.621,-15457.859,,,,,2007-01-05 08:12:21.462
6.387787,861,-39,-2378,-232,89,-81,4950.168,1654.148,1621.025,-15445.625,,,,,2007-01-05 08:12:21.482
6.407746,-77,-757,-2102,4,170,512,4990.792,1669.592,1642.053,-15428.66,,,,,2007-01-05 08:12:21.502
6.427765,181,-1124,-1658,147,-267,53,5005.191,1678.412,1675.63,-15419.426,,,,,2007-01-05 08:12:21.522
6.447754,410,-205,-2206,-38,-86,88,5037.464,1650.035,1685.09,-15410.945,-343,-482,-38,,2007-01-05 08:12:21.542
6.467774,427,-379,-2053,-145,-194,152,5074.568,1627.416,1701.266,-15399.396,,,,,2007-01-05 08:12:21.562
6.487793,369,-389,-2047,-114,-118,238,5114.131,1615.09,1715.941,-15385.972,,,,,2007-01-05 08:12:21.582
6.507782,336,-447,-2057,-29,-116,220,5148.667,1609.629,1726.86,-15373.799,,,,,2007-01-05 08:12:21.602
6.527802,361,-482,-2170,-23,-84,190,5180.452,1605.293,1730.246,-15363.191,,,,,2007-01-05 08:12:21.622
6.547791,450,-362,-2218,-46,-52,209,5218.268,1598.847,1731.695,-15350.897,-332,-486,-33,,2007-01-05 08:12:21.642
6.56781,389,-388,-2265,-37,-39,218,5255.391,1599.051,1734.621,-15337.876,,,,,2007-01-05 08:12:21.662
6.587799,287,-584,-2018,4,-61,260,5298.165,1599.537,1740.285,-15322.459,,,,,2007-01-05 08:12:21.682
6.607819,358,-499,-2084,-20,-57,227,5330.943,1593.399,1741.989,-15311.533,,,,,2007-01-05 08:12:21.702
6.627838,446,-431,-2107,-63,-39,189,5358.97,1584.994,1746.467,-15302.108,,,,,2007-01-05 08:12:21.722
6.647827,410,-499,-2145,-39,-67,152,5386.749,1579.821,1751.383,-15292.324,-328,-487,-38,,2007-01-05 08:12:21.742
6.667847,387,-544,-2361,-27,-47,172,5420.142,1576.533,1757.275,-15280.184,,,,,2007-01-05 08:12:21.762
6.687836,547,-458,-2279,-9,-81,207,5447.199,1578.173,1765.931,-15269.391,-328,-487,-38,25722,2007-01-05 08:12:21.782
6.707855,440,-457,-2095,54,-26,113,5461.616,1591.356,1773.507,-15261.994,,,,,2007-01-05 08:12:21.802
6.727875,404,-529,-2099,89,-24,104,5486.267,1601.896,1777.734,-15251.554,,,,,2007-01-05 08:12:21.822
6.747864,419,-423,-2031,33,-11,181,5513.421,1608.448,1781.951,-15240.576,-338,-487,-38,,2007-01-05 08:12:21.842
6.767884,447,-418,-2253,37,-24,141,5535.38,1618.02,1781.312,-15231.676,,,,,2007-01-05 08:12:21.862
6.787903,452,-293,-2308,58,18,139,5552.7,1629.631,1785.227,-15223.673,,,,,2007-01-05 08:12:21.882
6.807892,384,-535,-2080,90,-17,132,5573.006,1650.483,1792.535,-15213.144,,,,,2007-01-05 08:12:21.902
6.827881,477,-454,-1965,127,-4,130,5591.41,1669.249,1789.946,-15204.646,,,,,2007-01-05 08:12:21.922
6.847931,430,-386,-2169,69,53,143,5609.815,1684.876,1784.968,-15196.726,-337,-486,-44,,2007-01-05 08:12:21.942
6.86792,402,-513,-2109,86,46,108,5624.621,1705.343,1779.546,-15189.605,,,,,2007-01-05 08:12:21.962
6.88794,312,-539,-2243,100,69,123,5639.794,1726.459,1775.32,-15182.086,,,,,2007-01-05 08:12:21.982
6.907929,240,-632,-2174,93,35,110,5653.184,1742.208,1775.061,-15175.336,,,,,2007-01-05 08:12:22.002
6.927948,339,-557,-2215,91,34,95,5667.575,1754.834,1767.905,-15169.347,,,,,2007-01-05 08:12:22.022
6.947937,447,-481,-2228,22,58,86,5683.739,1758.262,1759.61,-15163.866,-339,-472,-39,,2007-01-05 08:12:22.042
6.967957,511,-444,-2252,-36,5,108,5708.843,1755.363,1758.748,-15154.869,,,,,2007-01-05 08:12:22.062
6.987946,418,-505,-2340,-1,-24,168,5736.07,1749.86,1761.551,-15144.896,,,,,2007-01-05 08:12:22.082
7.007965,416,-628,-2099,-40,-48,170,5765.065,1738.139,1763.138,-15135.048,,,,,2007-01-05 08:12:22.102
7.027954,547,-439,-2127,-115,-70,154,5788.088,1725.154,1766.749,-15127.323,,,,,2007-01-05 08:12:22.122
7.047974,407,-677,-2092,-44,-70,152,5804.064,1722.612,1772.76,-15120.787,-340,-487,-43,,2007-01-05 08:12:22.142
7.067993,429,-468,-1994,-5,-34,44,5802.876,1718.966,1776.256,-15121.248,,,,,2007-01-05 08:12:22.162
7.088013,526,-317,-1905,-23,-23,-37,5803.814,1708.502,1781.232,-15121.488,,,,,2007-01-05 08:12:22.182
7.108002,323,-571,-2009,-43,-50,38,5818.704,1701.527,1791.592,-15115.327,,,,,2007-01-05 08:12:22.202
7.127991,346,-467,-2123,-13,-85,93,5835.354,1692.365,1798.589,-15109.105,,,,,2007-01-05 08:12:22.222
7.148041,477,-499,-2044,-55,-58,108,5860.014,1682.378,1801.717,-15100.301,-349,-486,-46,,2007-01-05 08:12:22.242
7.16803,406,-585,-2102,-50,-51,163,5892.744,1674.742,1801.594,-15088.423,,,,,2007-01-05 08:12:22.262
7.188019,319,-636,-2184,-49,-30,214,5925.781,1671.848,1801.595,-15075.799,-349,-486,-46,25661,2007-01-05 08:12:22.282
7.208039,383,-624,-2089,-28,-27,179,5952.362,1668.373,1800.096,-15065.889,,,,,2007-01-05 08:12:22.302
7.228058,413,-605,-2037,-36,-14,159,5978.568,1663.167,1796.606,-15056.501,,,,,2007-01-05 08:12:22.322
7.248047,365,-611,-2056,-57,-20,161,6002.252,1655.33,1797.875,-15047.788,-344,-486,-39,,2007-01-05 08:12:22.342
7.268067,377,-719,-2199,-46,-48,119,6024.237,1646.558,1799.566,-15039.761,,,,,2007-01-05 08:12:22.362
7.288056,432,-667,-2178,-63,-33,132,6047.153,1637.202,1795.944,-15032.017,,,,,2007-01-05 08:12:22.382
7.308075,421,-679,-2109,-74,-8,130,6069.1,1630.85,1788.088,-15024.797,,,,,2007-01-05 08:12:22.402
7.328095,437,-522,-1977,-66,30,130,6094.06,1623.528,1776.631,-15016.844,,,,,2007-01-05 08:12:22.422
7.348084,442,-504,-1981,-70,23,159,6111.152,1615.534,1777.587,-15010.646,-347,-492,-47,,2007-01-05 08:12:22.442
7.368103,424,-513,-2057,-28,-63,66,6119.067,1607.146,1784.845,-15007.46,,,,,2007-01-05 08:12:22.462
7.388092,403,-474,-2037,-40,-60,36,6126.004,1596.396,1788.536,-15005.338,,,,,2007-01-05 08:12:22.482
7.408112,518,-618,-2073,-49,-29,19,6124.522,1588.488,1786.224,-15007.057,,,,,2007-01-05 08:12:22.502
7.428101,463,-723,-2219,-80,-9,79,6150.166,1570.144,1779.709,-14999.273,,,,,2007-01-05 08:12:22.522
7.44812,538,-596,-2215,-147,-20,176,6189.371,1544.561,1771.386,-14986.782,-341,-479,-30,,2007-01-05 08:12:22.542
7.46814,477,-607,-2163,-177,-44,238,6227.188,1515.75,1766.892,-14974.584,,,,,2007-01-05 08:12:22.562
7.488129,359,-560,-2167,-182,-43,181,6253.449,1481.469,1768.517,-14966.877,,,,,2007-01-05 08:12:22.582
7.508148,536,-456,-2104,-173,-115,41,6262.012,1446.494,1773.855,-14966.086,,,,,2007-01-05 08:12:22.602
7.528168,450,-344,-2131,-191,-92,69,6273.203,1416.85,1783.2,-14963.124,,,,,2007-01-05 08:12:22.622
7.548157,409,-373,-2192,-109,-106,37,6291.615,1393.973,1791.724,-14956.523,-347,-475,-45,,2007-01-05 08:12:22.642
7.568177,556,-387,-2154,-106,-108,128,6316.326,1375.742,1796.635,-14947.204,,,,,2007-01-05 08:12:22.662
7.588166,606,-351,-2153,-101,-69,145,6357.512,1356.5,1797.676,-14931.368,,,,,2007-01-05 08:12:22.682
7.608246,538,-676,-2112,-83,-73,298,6393.781,1352.677,1799.671,-14915.98,,,,,2007-01-05 08:12:22.702
7.628205,520,-548,-2160,-18,-21,176,6413.309,1353.981,1804.364,-14906.908,,,,,2007-01-05 08:12:22.722
7.648194,452,-488,-2160,14,-34,88,6429.888,1355.729,1815.446,-14898.259,-343,-485,-52,,2007-01-05 08:12:22.742
7.668183,741,-298,-2225,38,-76,103,6441.568,1360.338,1832.326,-14890.725,,,,,2007-01-05 08:12:22.762
7.688202,400,-748,-2173,74,-75,44,6443.069,1365.775,1848.729,-14887.55,-343,-485,-52,25667,2007-01-05 08:12:22.782
7.708222,509,-599,-2038,109,-12,-90,6439.464,1375.819,1864.277,-14886.246,,,,,2007-01-05 08:12:22.802
7.728211,502,-661,-2186,83,-45,-24,6434.506,1388.233,1875.455,-14885.834,,,,,2007-01-05 08:12:22.822
7.74823,529,-612,-2143,100,-20,-31,6423.369,1404.044,1884.501,-14888.018,-343,-471,-45,,2007-01-05 08:12:22.842
7.76825,494,-667,-2076,108,1,-57,6407.5,1422.136,1890.248,-14892.41,,,,,2007-01-05 08:12:22.862
7.788239,481,-659,-2116,112,35,-89,6379.889,1443.295,1896.088,-14901.483,,,,,2007-01-05 08:12:22.882
7.808258,538,-642,-2085,148,47,-182,6339.113,1469.674,1901.817,-14915.57,,,,,2007-01-05 08:12:22.902
7.828278,442,-585,-1845,181,70,-248,6287.238,1500.109,1907.956,-14933.702,,,,,2007-01-05 08:12:22.922
7.848267,495,-594,-1763,194,97,-318,6222.108,1534.628,1916.454,-14956.367,-352,-463,-50,,2007-01-05 08:12:22.942
7.868286,581,-665,-1883,247,93,-412,6143.417,1572.095,1925.74,-14983.788,,,,,2007-01-05 08:12:22.962
7.888306,621,-688,-1990,247,112,-470,6056.981,1608.325,1935.133,-15013.892,,,,,2007-01-05 08:12:22.982
7.908325,492,-836,-2012,245,112,-516,5965.207,1641.666,1942.226,-15046.077,,,,,2007-01-05 08:12:23.002
7.928284,736,-528,-2144,220,113,-544,5868.137,1667.744,1945.444,-15080.924,,,,,2007-01-05 08:12:23.022
7.948303,666,-525,-2139,170,145,-541,5768.762,1696.809,1955.929,-15114.629,-340,-485,-47,,2007-01-05 08:12:23.042
7.968323,682,-513,-2187,279,61,-613,5670.085,1724.871,1974.763,-15146.31,,,,,2007-01-05 08:12:23.062
7.988343,495,-603,-2166,178,42,-522,5579.979,1745.061,2006.711,-15173.238,,,,,2007-01-05 08:12:23.082
8.008332,383,-399,-2191,239,-77,-577,5482.274,1761.036,2050.35,-15201.149,,,,,2007-01-05 08:12:23.102
8.028351,216,-635,-2134,219,-154,-575,5381.528,1781.252,2102.652,-15227.626,,,,,2007-01-05 08:12:23.122
8.04834,319,-777,-2100,268,-130,-591,5296.737,1800.289,2126.563,-15251.777,-326,-482,-45,,2007-01-05 08:12:23.142
8.06836,506,-525,-2388,135,40,-474,5218.498,1806.34,2127.252,-15277.914,,,,,2007-01-05 08:12:23.162
8.088379,473,-560,-2304,61,79,-476,5128.191,1815.104,2138.428,-15305.869,,,,,2007-01-05 08:12:23.182
8.108368,475,-716,-2157,165,7,-567,5029.483,1829.413,2166.569,-15332.937,,,,,2007-01-05 08:12:23.202
8.128388,621,-607,-2033,182,-66,-591,4939.697,1830.39,2196.91,-15357.672,,,,,2007-01-05 08:12:23.222
8.148377,659,-533,-2004,58,-93,-495,4869.827,1812.775,2221.106,-15378.581,-336,-487,-27,,2007-01-05 08:12:23.242
8.168396,560,-465,-2063,-57,-88,-394,4816.104,1782.181,2238.597,-15396.528,,,,,2007-01-05 08:12:23.262
8.188385,543,-468,-2112,-116,-93,-331,4770.965,1750.545,2254.604,-15411.868,-336,-487,-27,25681,2007-01-05 08:12:23.282
8.208405,423,-446,-2080,-110,-96,-288,4726.097,1723.377,2274.472,-15425.828,,,,,2007-01-05 08:12:23.302
8.228394,419,-388,-2103,-69,-112,-304,4681.761,1702.514,2295.067,-15438.61,,,,,2007-01-05 08:12:23.322
8.248413,379,-406,-2180,-37,-109,-280,4638.837,1688.82,2313.16,-15450.365,-332,-498,-30,,2007-01-05 08:12:23.342
8.268433,271,-484,-2113,10,-68,-260,4593.032,1687.705,2329.723,-15461.679,,,,,2007-01-05 08:12:23.362
8.288422,274,-708,-2053,77,-43,-299,4535.947,1702.797,2339.53,-15475.39,,,,,2007-01-05 08:12:23.382
8.308441,390,-468,-1976,139,16,-345,4489.608,1700.065,2325.683,-15491.282,,,,,2007-01-05 08:12:23.402
8.32843,363,-390,-2011,-87,122,-193,4463.456,1682.469,2298.186,-15504.858,,,,,2007-01-05 08:12:23.422
8.34845,326,-372,-2140,-136,158,-137,4448.013,1664.342,2260.494,-15516.789,-328,-501,-18,,2007-01-05 08:12:23.442
8.36847,235,-386,-2210,-139,202,-90,4432.794,1653.462,2224.738,-15527.472,,,,,2007-01-05 08:12:23.462
8.388459,200,-400,-2253,-76,175,-94,4409.115,1652.061,2196.165,-15538.426,,,,,2007-01-05 08:12:23.482
8.408478,201,-491,-2276,-6,155,-154,4373.116,1659.247,2173.714,-15550.986,,,,,2007-01-05 08:12:23.502
8.428498,275,-574,-2299,55,154,-225,4324.703,1672.699,2152.732,-15565.995,,,,,2007-01-05 08:12:23.522
8.448487,384,-404,-2034,73,181,-284,4274.198,1683.605,2128.196,-15582.135,-312,-504,-13,,2007-01-05 08:12:23.542
8.468506,494,-280,-2141,44,194,-280,4229.826,1686.84,2097.721,-15598.017,,,,,2007-01-05 08:12:23.563
8.488495,473,-472,-2110,-37,212,-210,4200.406,1683.615,2061.552,-15611.133,,,,,2007-01-05 08:12:23.582
8.508515,481,-613,-2064,-58,228,-152,4175.085,1675.234,2021.285,-15624.087,,,,,2007-01-05 08:12:23.603
8.528504,564,-404,-2084,-113,250,-122,4157.312,1660.311,1972.826,-15636.608,,,,,2007-01-05 08:12:23.623
8.548523,525,-420,-2085,-152,268,-85,4139.058,1646.836,1924.292,-15648.919,-318,-498,-21,,2007-01-05 08:12:23.643
8.568512,445,-426,-2111,-123,268,-109,4114.923,1638.416,1874.491,-15662.207,,,,,2007-01-05 08:12:23.663
8.588532,427,-382,-2161,-95,300,-131,4085.942,1637.189,1821.224,-15676.201,,,,,2007-01-05 08:12:23.683
8.608551,486,-364,-2126,-50,324,-158,4051.888,1644.289,1768.28,-15690.352,,,,,2007-01-05 08:12:23.703
8.62854,508,-423,-2090,-4,333,-175,4019.863,1653.766,1720.836,-15702.863,,,,,2007-01-05 08:12:23.723
8.64856,560,-393,-2130,0,286,-147,3997.231,1656.19,1677.935,-15713.025,-310,-492,-25,,2007-01-05 08:12:23.743
8.668579,505,-483,-2166,-56,252,-83,3990.748,1649.735,1638.887,-15719.472,,,,,2007-01-05 08:12:23.763
8.688568,579,-473,-2250,-102,212,4,3998.413,1637.814,1601.494,-15722.624,-310,-492,-25,25661,2007-01-05 08:12:23.783
8.708588,586,-488,-2208,-130,182,83,4018.331,1622.965,1569.194,-15722.343,,,,,2007-01-05 08:12:23.803
8.728607,611,-464,-2225,-142,140,141,4049.386,1605.551,1543.257,-15718.73,,,,,2007-01-05 08:12:23.823
8.748596,580,-475,-2079,-146,94,205,4093.061,1585.315,1523.799,-15711.368,-325,-498,-26,,2007-01-05 08:12:23.843
8.768616,503,-443,-2048,-169,45,275,4147.262,1560.291,1512.225,-15700.775,,,,,2007-01-05 08:12:23.863
8.788605,490,-479,-2074,-181,-19,320,4208.339,1532.03,1506.609,-15687.84,,,,,2007-01-05 08:12:23.883
8.808625,494,-361,-2130,-179,-49,357,4275.76,1507.898,1507.92,-15671.813,,,,,2007-01-05 08:12:23.903
8.828705,527,-252,-2107,-146,-91,391,4347.751,1486.477,1512.164,-15653.633,,,,,2007-01-05 08:12:23.923
8.848633,521,-598,-1913,-131,-97,437,4425.14,1469.861,1515.577,-15633.173,-331,-504,-27,,2007-01-05 08:12:23.943
8.868653,510,-87,-2212,-99,-81,458,4502.714,1454.038,1517.587,-15612.293,,,,,2007-01-05 08:12:23.963
8.888642,546,-564,-2013,-158,-71,465,4586.736,1434.941,1516.842,-15589.657,,,,,2007-01-05 08:12:23.983
8.908661,463,-443,-2135,-150,-76,502,4668.934,1414.596,1516.555,-15567.128,,,,,2007-01-05 08:12:24.003
8.92865,440,-480,-2220,-177,-77,470,4749.114,1388.074,1515.634,-15545.336,,,,,2007-01-05 08:12:24.023
8.94867,465,-533,-2316,-173,-93,460,4829.188,1359.964,1518.879,-15522.818,-334,-481,-44,,2007-01-05 08:12:24.043
8.968689,464,-399,-2361,-179,-118,454,4899.981,1334.333,1527.774,-15501.97,,,,,2007-01-05 08:12:24.063
8.988678,498,-447,-2309,-143,-138,375,4959.083,1312.539,1543.276,-15483.49,,,,,2007-01-05 08:12:24.083
9.008698,569,-385,-2281,-95,-156,315,5010.039,1297.821,1562.053,-15466.434,,,,,2007-01-05 08:12:24.103
9.028687,507,-419,-2133,-61,-140,286,5057.695,1287.112,1583.479,-15449.631,,,,,2007-01-05 08:12:24.123
9.048706,412,-396,-2127,-26,-156,256,5097.134,1279.233,1603.481,-15435.254,-328,-482,-41,,2007-01-05 08:12:24.143
9.068695,477,-455,-2265,-20,-134,209,5130.505,1274.734,1620.516,-15422.786,,,,,2007-01-05 08:12:24.163
9.088715,574,-351,-2064,7,-114,200,5163.518,1274.856,1628.011,-15410.965,,,,,2007-01-05 08:12:24.183
9.108734,386,-449,-2201,-1,-30,196,5203.69,1276.7,1635.978,-15396.449,,,,,2007-01-05 08:12:24.203
9.128723,404,-292,-2108,12,-54,282,5237.213,1277.937,1638.811,-15384.674,,,,,2007-01-05 08:12:24.223
9.148743,453,-349,-2147,-30,-33,224,5269.494,1284.221,1638.742,-15373.131,-340,-471,-43,,2007-01-05 08:12:24.243
9.168732,455,-604,-1959,55,11,170,5283.954,1306.822,1639.92,-15366.136,,,,,2007-01-05 08:12:24.263
9.188751,569,-664,-1985,128,38,68,5291.192,1331.63,1639.447,-15361.565,-340,-471,-43,25675,2007-01-05 08:12:24.283
9.208771,610,-545,-2045,119,61,67,5295.522,1359.464,1633.502,-15358.268,,,,,2007-01-05 08:12:24.303
9.22876,602,-353,-2071,132,106,53,5298.023,1388.409,1622.613,-15355.97,,,,,2007-01-05 08:12:24.323
9.24878,462,-211,-2055,141,136,35,5291.109,1422.742,1609.128,-15356.631,-328,-480,-43,,2007-01-05 08:12:24.343
9.268769,444,-361,-2204,192,145,-39,5268.003,1467.843,1599.63,-15361.321,,,,,2007-01-05 08:12:24.363
9.288788,379,-560,-2367,264,161,-121,5244.826,1505.757,1583.496,-15367.253,,,,,2007-01-05 08:12:24.383
9.308808,450,-1246,-1998,167,190,-82,5209.499,1555.545,1576.42,-15375.036,,,,,2007-01-05 08:12:24.403
9.328827,361,-145,-2433,285,110,-240,5172.385,1569.884,1573.614,-15386.392,,,,,2007-01-05 08:12:24.423
9.348816,528,-946,-1716,22,88,-149,5128.957,1610.251,1580.351,-15396.065,-339,-476,-35,,2007-01-05 08:12:24.443
9.368805,288,-223,-2127,360,46,-398,5085.546,1626.769,1595.288,-15407.185,,,,,2007-01-05 08:12:24.463
9.388825,402,-350,-2027,74,-2,-158,5053.947,1647.395,1595.683,-15415.347,,,,,2007-01-05 08:12:24.483
9.408844,459,-553,-2090,172,61,-147,5042.461,1666.03,1598.834,-15416.779,,,,,2007-01-05 08:12:24.503
9.428864,481,-631,-1942,83,4,11,5040.429,1678.25,1603.943,-15415.588,,,,,2007-01-05 08:12:24.523
9.448853,518,-518,-2190,70,0,-26,5037.382,1684.561,1607.764,-15415.498,-334,-479,-26,,2007-01-05 08:12:24.543
9.468872,528,-538,-2114,22,0,14,5046.232,1685.836,1608.423,-15412.395,,,,,2007-01-05 08:12:24.563
9.488861,478,-554,-2133,8,6,71,5058.617,1687.69,1608.336,-15408.14,,,,,2007-01-05 08:12:24.583
9.508881,476,-593,-2153,0,4,82,5073.972,1687.899,1608.94,-15403.005,,,,,2007-01-05 08:12:24.603
9.52887,399,-593,-2173,-10,-17,100,5090.682,1685.858,1614.725,-15397.108,,,,,2007-01-05 08:12:24.623
9.548889,431,-575,-2123,-6,-50,89,5102.981,1684.403,1624.811,-15392.134,-333,-485,-34,,2007-01-05 08:12:24.643
9.568878,410,-512,-2176,8,-70,60,5113.542,1683.332,1638.042,-15387.343,,,,,2007-01-05 08:12:24.663
9.588898,397,-548,-2190,17,-79,60,5125.192,1683.171,1651.721,-15382.022,,,,,2007-01-05 08:12:24.683
9.608918,388,-557,-2108,19,-80,71,5137.024,1682.234,1667.869,-15376.434,,,,,2007-01-05 08:12:24.703
9.628907,370,-569,-2064,21,-96,59,5147.764,1681.44,1684.472,-15371.118,,,,,2007-01-05 08:12:24.723
9.648926,267,-878,-1914,22,-96,56,5157.812,1681.653,1699.372,-15366.085,-340,-492,-27,,2007-01-05 08:12:24.743
9.668915,400,-371,-2121,24,-73,42,5155.657,1680.484,1705.773,-15366.228,,,,,2007-01-05 08:12:24.763
9.688935,499,-275,-2198,-52,-44,-19,5167.922,1659.061,1717.6,-15363.118,-340,-492,-27,25667,2007-01-05 08:12:24.783
9.708954,363,-504,-2153,-59,-121,62,5177.324,1651.837,1734.04,-15358.883,,,,,2007-01-05 08:12:24.803
9.728943,339,-552,-2134,12,-101,44,5184.595,1648.007,1752.153,-15354.786,,,,,2007-01-05 08:12:24.823
9.748963,346,-527,-2120,-1,-114,27,5188.343,1640.473,1767.518,-15352.565,-332,-493,-33,,2007-01-05 08:12:24.843
9.768952,373,-546,-2100,-25,-89,1,5191.416,1627.931,1777.01,-15351.766,,,,,2007-01-05 08:12:24.863
9.788971,400,-555,-2060,-70,-61,6,5198.077,1609.304,1776.313,-15351.556,,,,,2007-01-05 08:12:24.883
9.808991,468,-532,-2024,-127,-15,37,5208.901,1586.114,1767.682,-15351.297,,,,,2007-01-05 08:12:24.903
9.82898,476,-506,-2101,-165,11,61,5222.217,1561.419,1753.981,-15350.876,,,,,2007-01-05 08:12:24.923
9.848999,459,-483,-2133,-164,32,69,5232.938,1538.517,1741.525,-15350.956,-339,-493,-30,,2007-01-05 08:12:24.943
9.869019,397,-461,-2159,-137,19,36,5236.441,1521.807,1733.168,-15352.373,,,,,2007-01-05 08:12:24.963
9.889008,395,-488,-2217,-88,18,-5,5232.855,1511.349,1726.963,-15355.327,,,,,2007-01-05 08:12:24.983
9.909088,399,-541,-2221,-52,17,-38,5224.126,1503.6,1723.39,-15359.462,,,,,2007-01-05 08:12:25.003
9.929016,396,-534,-2162,-37,8,-72,5210.676,1496.029,1719.344,-15365.222,,,,,2007-01-05 08:12:25.023
9.949036,429,-552,-2113,-52,25,-90,5198.068,1483.373,1712.366,-15371.497,-331,-497,-22,,2007-01-05 08:12:25.043
9.969025,424,-445,-2059,-94,36,-87,5189.523,1463.259,1699.091,-15377.784,,,,,2007-01-05 08:12:25.063
9.989044,426,-438,-2006,-147,52,-57,5181.757,1439.834,1682.786,-15384.406,,,,,2007-01-05 08:12:25.083
10.009064,407,-463,-2045,-156,61,-63,5174.326,1415.016,1666.076,-15391.026,,,,,2007-01-05 08:12:25.103
10.029053,422,-494,-2083,-165,55,-61,5165.323,1388.093,1648.921,-15398.348,,,,,2007-01-05 08:12:25.123
10.049134,441,-490,-2144,-179,59,-78,5155.375,1360.209,1633.386,-15405.824,-327,-486,-28,,2007-01-05 08:12:25.143
10.069092,473,-510,-2270,-176,44,-82,5143.54,1334.108,1620.936,-15413.376,,,,,2007-01-05 08:12:25.163
10.089081,484,-446,-2250,-148,43,-95,5130.75,1311.766,1610.696,-15420.628,,,,,2007-01-05 08:12:25.183
10.109101,463,-474,-2145,-125,23,-93,5121.723,1289.468,1594.642,-15427.176,,,,,2007-01-05 08:12:25.203
10.12909,430,-435,-2080,-162,68,-57,5116.696,1264.582,1572.621,-15433.164,,,,,2007-01-05 08:12:25.223
10.149109,480,-393,-2129,-175,85,-47,5115.58,1238.545,1548.69,-15438.065,-327,-491,-35,,2007-01-05 08:12:25.243
10.169129,458,-366,-2135,-183,85,-7,5115.992,1213.979,1529.051,-15441.836,,,,,2007-01-05 08:12:25.263
10.189118,413,-340,-2141,-152,56,-12,5111.883,1195.295,1516.981,-15445.845,-327,-491,-35,25665,2007-01-05 08:12:25.283
10.209107,533,-465,-2256,-100,24,-44,5098.857,1183.526,1510.075,-15451.732,,,,,2007-01-05 08:12:25.303
10.229126,432,-410,-2184,-33,41,-130,5084.087,1181.461,1505.207,-15457.231,,,,,2007-01-05 08:12:25.323
10.249146,406,-428,-2132,-29,33,-45,5081.375,1173.71,1498.031,-15459.41,-317,-480,-36,,2007-01-05 08:12:25.343
10.269165,392,-448,-2156,-67,29,0,5087.944,1159.927,1486.746,-15459.38,,,,,2007-01-05 08:12:25.363
10.289154,503,-422,-2176,-120,35,58,5099.956,1139.761,1471.196,-15458.409,,,,,2007-01-05 08:12:25.383
10.309174,485,-424,-2271,-154,55,66,5116.544,1117.04,1451.978,-15456.403,,,,,2007-01-05 08:12:25.403
10.329163,493,-401,-2251,-163,61,95,5135.148,1097.446,1435.799,-15453.148,,,,,2007-01-05 08:12:25.423
10.349182,484,-406,-2261,-131,45,103,5153.377,1083.871,1427.031,-15448.849,-326,-480,-52,,2007-01-05 08:12:25.443
10.369202,457,-393,-2268,-79,6,104,5169.659,1076.719,1426.986,-15443.913,,,,,2007-01-05 08:12:25.463
10.389191,394,-397,-2233,-29,-22,92,5182.846,1074.894,1433.81,-15438.987,,,,,2007-01-05 08:12:25.483
10.40921,376,-409,-2123,4,-39,73,5197.428,1074.464,1444.027,-15433.162,,,,,2007-01-05 08:12:25.503
10.429199,452,-450,-2100,5,-64,92,5216.762,1071.344,1451.365,-15426.166,,,,,2007-01-05 08:12:25.523
10.449219,498,-383,-2074,-35,-35,132,5248.786,1061.782,1455.116,-15415.607,-331,-475,-59,,2007-01-05 08:12:25.543
10.469208,477,-417,-1984,-75,-40,216,5281.52,1051.635,1459.986,-15404.658,,,,,2007-01-05 08:12:25.563
10.489228,554,-346,-2146,-62,-49,165,5320.809,1041.678,1465.999,-15391.237,,,,,2007-01-05 08:12:25.583
10.509217,604,-357,-2153,-39,-51,243,5366.976,1040.381,1473.418,-15374.578,,,,,2007-01-05 08:12:25.603
10.529267,632,-387,-2247,12,-58,285,5419.535,1046.429,1483.252,-15354.772,,,,,2007-01-05 08:12:25.623
10.549256,576,-397,-2256,37,-58,350,5489.272,1055.36,1492.938,-15328.427,-323,-474,-44,,2007-01-05 08:12:25.643
10.569245,257,-456,-2096,41,-64,486,5561.496,1066.139,1512.93,-15299.659,,,,,2007-01-05 08:12:25.663
10.589264,384,-531,-2060,70,-163,397,5622.844,1071.025,1544.634,-15273.705,,,,,2007-01-05 08:12:25.683
10.609284,506,-378,-2088,43,-200,365,5689.506,1068.956,1571.194,-15246.43,,,,,2007-01-05 08:12:25.703
10.629273,435,-381,-2012,10,-164,422,5753.429,1075.446,1598.294,-15219.145,,,,,2007-01-05 08:12:25.723
10.649292,335,-558,-1999,87,-157,374,5816.271,1087.787,1627.757,-15191.233,-333,-459,-43,,2007-01-05 08:12:25.743
10.669312,270,-678,-2065,96,-189,407,5888.973,1086.926,1663.103,-15159.423,,,,,2007-01-05 08:12:25.763
10.689301,321,-600,-2070,-19,-262,440,5965.473,1065.54,1696.388,-15127.308,-333,-459,-43,25656,2007-01-05 08:12:25.783
10.70932,370,-547,-2046,-128,-290,455,6039.054,1029.893,1724.616,-15097.36,,,,,2007-01-05 08:12:25.803
10.729309,457,-461,-2084,-188,-268,407,6100.852,989.918,1751.3,-15072.095,,,,,2007-01-05 08:12:25.823
10.749329,479,-441,-2187,-184,-237,312,6148.937,955.962,1775.697,-15051.879,-328,-461,-57,,2007-01-05 08:12:25.843
10.769348,424,-538,-2209,-133,-194,234,6179.624,930.299,1792.765,-15038.89,,,,,2007-01-05 08:12:25.863
10.789337,409,-490,-2154,-113,-136,125,6193.093,909.195,1802.365,-15033.492,,,,,2007-01-05 08:12:25.883
10.809357,383,-595,-2143,-110,-101,53,6197.283,889.423,1812.83,-15031.689,,,,,2007-01-05 08:12:25.903
10.829346,324,-625,-2179,-108,-83,7,6205.718,859.287,1818.52,-15029.275,,,,,2007-01-05 08:12:25.923
10.849365,298,-545,-2150,-183,-103,14,6209.637,822.211,1820.914,-15029.441,-323,-467,-49,,2007-01-05 08:12:25.943
10.869355,371,-470,-1991,-200,-101,-41,6202.426,783.938,1817.492,-15034.877,,,,,2007-01-05 08:12:25.963
10.889374,420,-383,-2117,-234,-49,-82,6186.167,745.472,1808.782,-15044.579,,,,,2007-01-05 08:12:25.983
10.909394,477,-345,-1984,-204,-25,-158,6153.978,713.385,1798.079,-15060.61,,,,,2007-01-05 08:12:26.003
10.929413,502,-392,-2085,-174,33,-236,6119.17,678.587,1784.997,-15077.947,,,,,2007-01-05 08:12:26.023
10.949402,562,-372,-2036,-206,10,-244,6078.346,641.973,1775.61,-15097.159,-331,-456,-45,,2007-01-05 08:12:26.043
10.969391,584,-382,-2124,-202,8,-280,6037.248,603.846,1765.56,-15116.39,,,,,2007-01-05 08:12:26.063
10.989411,677,-373,-2215,-208,6,-274,5990.903,565.503,1756.614,-15137.339,,,,,2007-01-05 08:12:26.083
11.00943,553,-266,-2006,-182,16,-340,5936.185,534.607,1742.35,-15161.648,,,,,2007-01-05 08:12:26.103
11.029419,549,-307,-1986,-157,46,-362,5876.569,507.971,1730.19,-15187.158,,,,,2007-01-05 08:12:26.123
11.049439,509,-280,-2214,-124,90,-416,5815.497,482.825,1714.38,-15213.258,-320,-455,-58,,2007-01-05 08:12:26.143
11.069458,569,-414,-2196,-130,59,-394,5750.652,462.237,1699.054,-15240.243,,,,,2007-01-05 08:12:26.163
11.089447,547,-185,-2043,-107,125,-419,5691.522,443.911,1682.93,-15264.753,,,,,2007-01-05 08:12:26.183
11.109467,595,-225,-2068,-76,70,-382,5629.349,435.602,1668.973,-15289.56,,,,,2007-01-05 08:12:26.203
11.129456,823,-360,-2449,-13,123,-373,5572.741,436.34,1654.143,-15311.872,,,,,2007-01-05 08:12:26.223
11.149475,585,-122,-1937,25,112,-352,5515.968,451.944,1643.936,-15333.061,-317,-456,-68,,2007-01-05 08:12:26.243
11.169495,638,-334,-2199,121,148,-325,5463.614,477.864,1632.323,-15352.248,,,,,2007-01-05 08:12:26.263
11.189484,587,-316,-2114,163,143,-311,5414.561,509.492,1621.553,-15369.741,-317,-456,-68,25646,2007-01-05 08:12:26.283
11.209473,648,-484,-2307,185,114,-253,5367.961,545.76,1613.673,-15385.663,,,,,2007-01-05 08:12:26.303
11.229492,529,-325,-1782,205,134,-246,5327.506,588.592,1604.27,-15399.123,,,,,2007-01-05 08:12:26.323
11.249512,574,-390,-1856,245,165,-215,5290.426,634.566,1596.086,-15410.927,-315,-443,-69,,2007-01-05 08:12:26.344
11.269593,509,-330,-1828,245,145,-180,5256.962,683.74,1593.943,-15420.494,,,,,2007-01-05 08:12:26.364
11.289521,532,-497,-1899,287,121,-170,5225.474,732.283,1592.373,-15429.127,,,,,2007-01-05 08:12:26.384
11.30954,457,-463,-1895,264,102,-162,5196.722,778.411,1596.158,-15436.187,,,,,2007-01-05 08:12:26.404
11.32956,526,-424,-1920,255,66,-122,5172.401,827.089,1607.487,-15440.648,,,,,2007-01-05 08:12:26.424
11.349549,687,-419,-2021,288,67,-87,5151.859,884.223,1624.736,-15442.544,-307,-454,-68,,2007-01-05 08:12:26.444
11.369568,563,-489,-1880,373,23,-118,5122.958,954.75,1642.238,-15446.108,,,,,2007-01-05 08:12:26.464
11.389557,288,-370,-1832,420,83,-107,5099.725,1030.35,1664.583,-15446.546,,,,,2007-01-05 08:12:26.484
11.409577,306,-420,-1840,494,16,-99,5075.109,1113.703,1681.71,-15447.013,,,,,2007-01-05 08:12:26.504
11.429566,287,-464,-2226,499,66,-85,5048.681,1204.104,1700.864,-15446.794,,,,,2007-01-05 08:12:26.524
11.449585,354,-550,-2021,593,77,-130,5011.812,1309.665,1712.223,-15448.956,-314,-454,-61,,2007-01-05 08:12:26.544
11.469605,245,-564,-2128,632,163,-148,4973.883,1425.938,1723.936,-15449.617,,,,,2007-01-05 08:12:26.564
11.489594,292,-769,-1888,691,150,-147,4929.226,1549.941,1733.887,-15450.873,,,,,2007-01-05 08:12:26.584
11.509613,364,-753,-2075,695,209,-185,4879.603,1669.496,1742.631,-15453.185,,,,,2007-01-05 08:12:26.604
11.529602,356,-1074,-2118,666,189,-222,4824.418,1778.422,1748.63,-15457.682,,,,,2007-01-05 08:12:26.624
11.549622,369,-998,-2154,558,220,-248,4764.937,1868.156,1749.033,-15465.5,-324,-466,-52,,2007-01-05 08:12:26.644
11.569641,65,-653,-1742,481,194,-305,4706.987,1937.305,1738.649,-15475.906,,,,,2007-01-05 08:12:26.664
11.58963,75,-595,-1780,310,178,-270,4652.192,1992.264,1723.712,-15487.164,,,,,2007-01-05 08:12:26.684
11.60965,244,-531,-2085,260,161,-259,4588.687,2040.011,1709.241,-15501.491,,,,,2007-01-05 08:12:26.704
11.629639,232,-598,-1922,229,174,-298,4512.218,2096.703,1697.79,-15517.624,,,,,2007-01-05 08:12:26.724
11.649658,231,-688,-1919,331,257,-392,4423.022,2166.357,1680.806,-15535.575,-327,-488,-37,,2007-01-05 08:12:26.744
11.669678,327,-841,-2089,395,329,-477,4317.233,2238.937,1655.412,-15557.754,,,,,2007-01-05 08:12:26.764
11.689667,247,-963,-2814,339,355,-562,4213.91,2295.38,1629.595,-15580.566,-327,-488,-37,25644,2007-01-05 08:12:26.784
11.709687,430,-973,-3095,231,307,-501,4135.733,2326.17,1595.645,-15600.449,,,,,2007-01-05 08:12:26.804
11.729676,822,-917,-3427,23,236,-318,4070.798,2336.017,1566.361,-15619.013,,,,,2007-01-05 08:12:26.824
11.749695,1703,-1088,-3591,-34,195,-255,4043.885,2319.618,1554.527,-15629.627,-321,-501,-22,,2007-01-05 08:12:26.844
11.769715,562,-887,-2985,-147,37,-30,4022.621,2302.771,1549.294,-15638.123,,,,,2007-01-05 08:12:26.864
11.789704,428,-777,-2759,-89,77,-189,3989.524,2288.239,1532.041,-15650.429,,,,,2007-01-05 08:12:26.884
11.809693,755,-640,-2530,-142,88,-124,3966.661,2264.902,1515.036,-15661.287,,,,,2007-01-05 08:12:26.904
11.829712,877,-686,-2508,-185,100,-99,3947.463,2238.383,1502.178,-15671.186,,,,,2007-01-05 08:12:26.924
11.849732,786,-470,-2100,-159,102,-114,3941.744,2221.292,1493.292,-15675.906,-332,-519,-10,,2007-01-05 08:12:26.944
11.869751,800,-138,-2259,-58,79,-19,3958.076,2217.557,1490.678,-15672.568,,,,,2007-01-05 08:12:26.964
11.88974,512,-524,-2208,4,-20,156,3987.665,2230.136,1496.145,-15662.759,,,,,2007-01-05 08:12:26.984
11.909851,480,-394,-1911,85,-82,255,4023.064,2254.731,1512.114,-15648.645,,,,,2007-01-05 08:12:27.004
11.929749,32,-600,-1231,204,-121,212,4068.188,2285.612,1529.886,-15630.761,,,,,2007-01-05 08:12:27.024
11.949768,202,-124,-391,186,-110,307,4120.832,2317.281,1549.497,-15610.363,-325,-529,-7,,2007-01-05 08:12:27.044
11.969788,10,-776,-2229,169,-67,336,4187.923,2335.282,1562.036,-15588.561,,,,,2007-01-05 08:12:27.064
11.989777,325,-1126,-2137,63,-132,407,4260.263,2338.433,1568.964,-15567.777,,,,,2007-01-05 08:12:27.084
12.009766,102,-589,-1703,-74,-103,464,4337.249,2329.979,1577.721,-15546.887,,,,,2007-01-05 08:12:27.104
12.029846,12,-539,-1731,-117,-117,466,4421.841,2310.283,1587.322,-15525.004,,,,,2007-01-05 08:12:27.124
12.049805,30,-620,-1407,-155,-184,487,4507.731,2284.687,1601.844,-15502.583,-328,-518,-9,,2007-01-05 08:12:27.144
12.069824,293,-358,-1541,-159,-182,478,4591.064,2259.372,1619.399,-15479.998,,,,,2007-01-05 08:12:27.164
12.089813,229,-584,-1741,-164,-192,491,4677.834,2235.538,1636.93,-15455.618,,,,,2007-01-05 08:12:27.184
12.109833,153,-588,-1967,-176,-187,577,4768.916,2218.236,1651.367,-15428.716,,,,,2007-01-05 08:12:27.204
12.129853,79,-316,-815,-131,-212,572,4869.463,2199.1,1666.139,-15398.432,,,,,2007-01-05 08:12:27.224
12.149842,468,-380,-2035,-136,-299,692,4995.462,2174.902,1681.658,-15359.773,,,,,2007-01-05 08:12:27.244
12.169861,892,-539,-2783,-111,-346,764,5128.005,2143.583,1697.883,-15318.657,-321,-516,-13,,2007-01-05 08:12:27.264
12.18985,585,-991,-3235,-162,-385,758,5241.667,2103.179,1710.838,-15284.307,-321,-516,-13,25660,2007-01-05 08:12:27.284
12.209839,543,-1314,-3725,-191,-311,542,5300.435,2058.525,1700.642,-15271.251,,,,,2007-01-05 08:12:27.304
12.22992,351,-996,-2993,-264,-18,104,5288.877,2008.043,1678.143,-15284.463,,,,,2007-01-05 08:12:27.324
12.249878,714,-768,-2886,-286,98,-282,5255.17,1947.868,1655.944,-15306.283,,,,,2007-01-05 08:12:27.344
12.269867,865,-690,-2236,-335,122,-358,5211.467,1890.718,1642.994,-15329.768,-318,-512,-10,,2007-01-05 08:12:27.364
12.289887,1033,-528,-2559,-262,155,-417,5160.788,1842.17,1636.13,-15353.54,,,,,2007-01-05 08:12:27.384
12.309876,724,-508,-2046,-205,166,-488,5099.962,1801.674,1624.141,-15379.92,,,,,2007-01-05 08:12:27.404
12.329926,595,-322,-1773,-185,224,-531,5031.707,1768.076,1605.57,-15408.225,,,,,2007-01-05 08:12:27.424
12.349915,766,-525,-2328,-123,153,-520,4956.386,1745.508,1576.97,-15438.136,,,,,2007-01-05 08:12:27.444
12.369934,827,-398,-2051,-127,215,-470,4883.088,1737.526,1553.901,-15464.711,-333,-508,-22,,2007-01-05 08:12:27.464
12.389923,749,-85,-1898,-44,246,-384,4815.243,1742.711,1541.813,-15486.596,,,,,2007-01-05 08:12:27.484
12.409912,767,-193,-1813,110,157,-466,4743.19,1762.957,1527.704,-15507.923,,,,,2007-01-05 08:12:27.504
12.429932,840,-211,-2082,137,187,-365,4676.955,1795.412,1520.766,-15524.989,,,,,2007-01-05 08:12:27.524
12.449951,724,-483,-1373,227,203,-317,4629.626,1837.295,1507.484,-15535.567,,,,,2007-01-05 08:12:27.544
12.46994,618,-163,-1503,225,227,-261,4580.342,1877.019,1501.127,-15546.039,-332,-510,-23,,2007-01-05 08:12:27.564
12.490021,721,-322,-1393,249,179,-300,4535.937,1918.847,1490.344,-15554.987,,,,,2007-01-05 08:12:27.584
12.50998,813,-547,-2550,232,176,-178,4507.81,1950.41,1486.883,-15559.568,,,,,2007-01-05 08:12:27.604
12.529999,767,-400,-2101,209,40,-164,4485.096,1982.882,1488.426,-15561.88,,,,,2007-01-05 08:12:27.624
12.549988,459,-887,-1785,214,64,-79,4474.341,2015.032,1493.488,-15560.361,,,,,2007-01-05 08:12:27.644
12.569977,173,-349,-1549,186,-33,-29,4479.131,2021.746,1498.865,-15557.595,-326,-504,-45,,2007-01-05 08:12:27.664
12.589997,173,-763,-2064,11,-118,5,4474.18,2013.342,1519.339,-15558.124,,,,,2007-01-05 08:12:27.684
12.609986,150,-641,-1901,-40,-113,-29,4466.794,1998.057,1542.455,-15559.942,,,,,2007-01-05 08:12:27.704
12.630005,422,-600,-2192,-1,-140,-158,4443.119,1995.243,1560.914,-15565.239,,,,,2007-01-05 08:12:27.724
12.649994,402,-793,-1985,56,-91,-189,4415.815,1999.641,1577.064,-15570.816,,,,,2007-01-05 08:12:27.744
12.670014,362,-261,-1693,43,-11,-148,4387.586,2000.013,1593.22,-15577.102,-336,-508,-31,,2007-01-05 08:12:27.764
12.690033,554,-636,-2207,40,-43,-221,4343.358,2004.344,1609.508,-15587.263,-336,-508,-31,25661,2007-01-05 08:12:27.784
12.710053,367,-279,-2283,78,-45,-259,4303.753,2012.838,1623.609,-15595.689,,,,,2007-01-05 08:12:27.804
12.730042,354,-542,-1874,105,-39,-226,4262.879,2030.856,1632.553,-15603.643,,,,,2007-01-05 08:12:27.824
12.750061,149,-814,-2240,124,12,-180,4225.326,2049.766,1640.294,-15610.572,,,,,2007-01-05 08:12:27.844
12.770081,297,-511,-2366,150,14,-252,4180.149,2063.545,1643.541,-15620.574,-323,-517,-33,,2007-01-05 08:12:27.864
12.79007,270,-519,-2101,86,12,-269,4123.869,2070.947,1651.553,-15633.704,,,,,2007-01-05 08:12:27.884
12.810089,355,-535,-2201,40,-7,-299,4073.529,2058.941,1662.823,-15647.287,,,,,2007-01-05 08:12:27.904
12.830078,939,-625,-2606,-51,-96,-306,4020.874,2031.828,1682.396,-15662.351,,,,,2007-01-05 08:12:27.924
12.850098,962,-365,-2471,-111,-119,-355,3973.819,1991.051,1717.71,-15675.758,,,,,2007-01-05 08:12:27.944
12.870087,725,-378,-2544,-152,-201,-278,3958.333,1938.919,1747.059,-15682.966,-327,-503,-17,,2007-01-05 08:12:27.964
12.890106,461,-499,-2386,-260,-210,-63,3972.022,1883.417,1772.074,-15683.462,,,,,2007-01-05 08:12:27.984
12.910126,195,-545,-2311,-259,-213,46,3988.193,1830.549,1783.766,-15684.292,,,,,2007-01-05 08:12:28.004
12.930115,130,-596,-2277,-259,-111,-16,3988.419,1786.153,1787.874,-15688.885,,,,,2007-01-05 08:12:28.024
12.950104,214,-582,-2189,-205,-63,-76,3985.382,1743.551,1782.712,-15695.035,,,,,2007-01-05 08:12:28.044
12.970154,473,-329,-2083,-258,-42,-61,3987.599,1695.283,1784.639,-15699.54,-311,-519,-12,,2007-01-05 08:12:28.064
12.990143,516,-256,-2078,-249,-72,-40,3991.625,1648.075,1787.196,-15703.253,,,,,2007-01-05 08:12:28.084
13.010163,406,-83,-1978,-252,-81,-6,3997.791,1607.648,1793.641,-15705.14,,,,,2007-01-05 08:12:28.104
13.030152,291,-473,-2191,-167,-111,17,3997.518,1581.705,1795.333,-15707.65,,,,,2007-01-05 08:12:28.124
13.050171,194,-416,-1918,-120,-41,-21,3991.968,1558.076,1788.326,-15712.222,,,,,2007-01-05 08:12:28.144
13.07016,335,-357,-2085,-149,13,-70,3978.273,1525.274,1773.658,-15720.574,-314,-523,-11,,2007-01-05 08:12:28.164
13.09018,449,-240,-2225,-205,74,-136,3957.701,1490.982,1753.066,-15731.363,,,,,2007-01-05 08:12:28.184
13.110199,476,-199,-2105,-200,92,-169,3933.838,1457.133,1733.195,-15742.717,,,,,2007-01-05 08:12:28.204
13.130188,536,-261,-2224,-206,82,-159,3910.617,1424.068,1715.21,-15753.495,,,,,2007-01-05 08:12:28.224
13.150208,488,-268,-2010,-181,61,-163,3887.727,1390.367,1689.211,-15764.976,,,,,2007-01-05 08:12:28.244
13.170197,425,-222,-2081,-223,112,-137,3879.33,1347.986,1661.614,-15773.655,-310,-494,-20,,2007-01-05 08:12:28.264
13.190216,532,-336,-2062,-278,101,-54,3874.904,1300.733,1632.175,-15781.782,-310,-494,-20,25656,2007-01-05 08:12:28.284
13.210236,711,-209,-2309,-321,123,-30,3879.574,1242.685,1601.646,-15788.439,,,,,2007-01-05 08:12:28.304
13.230225,741,-323,-2414,-369,87,22,3886.897,1186.167,1578.847,-15793.281,,,,,2007-01-05 08:12:28.324
13.250244,658,-236,-2350,-335,40,45,3898.78,1132.899,1558.342,-15796.299,,,,,2007-01-05 08:12:28.344
13.270233,711,-162,-2344,-326,34,55,3894.776,1092.224,1545.276,-15801.434,-308,-505,-23,,2007-01-05 08:12:28.364
13.290253,547,-181,-2140,-175,54,-100,3885.476,1066.493,1531.589,-15806.813,,,,,2007-01-05 08:12:28.384
13.310242,593,-323,-2228,-129,54,-43,3866.305,1054.154,1518.725,-15813.581,,,,,2007-01-05 08:12:28.404
13.330261,997,-290,-2266,-50,96,-140,3850.455,1056.088,1497.29,-15819.363,,,,,2007-01-05 08:12:28.424
13.350251,663,-204,-2197,17,251,-60,3849.292,1078.138,1475.007,-15820.252,,,,,2007-01-05 08:12:28.444
13.37027,588,-243,-2327,167,170,-60,3832.453,1125.222,1458.641,-15822.578,-308,-495,-28,,2007-01-05 08:12:28.464
13.39029,493,-316,-2205,324,168,-87,3808.056,1189.201,1446.378,-15824.915,,,,,2007-01-05 08:12:28.484
13.410309,540,-574,-1973,349,181,-103,3792.846,1243.212,1424.75,-15826.379,,,,,2007-01-05 08:12:28.504
13.430298,550,-505,-1921,238,231,-42,3782.793,1283.793,1397.162,-15828.004,,,,,2007-01-05 08:12:28.524
13.450287,667,-524,-1965,157,212,-8,3776.368,1318.435,1372.36,-15828.861,,,,,2007-01-05 08:12:28.544
13.470307,504,-341,-2152,152,203,42,3774.88,1353.347,1354.06,-15827.845,-321,-480,-47,,2007-01-05 08:12:28.564
13.490296,265,-345,-2131,196,157,-14,3760.997,1392.923,1338.248,-15829.062,,,,,2007-01-05 08:12:28.584
13.510346,602,-507,-2265,198,146,-56,3750.81,1428.655,1319.439,-15829.873,,,,,2007-01-05 08:12:28.604
13.530335,607,-388,-2068,179,174,-40,3740.879,1465.561,1294.072,-15830.943,,,,,2007-01-05 08:12:28.624
13.550354,511,-428,-2148,150,203,14,3744.051,1494.84,1268.36,-15829.537,,,,,2007-01-05 08:12:28.644
13.570343,528,-427,-2209,110,156,95,3750.315,1520.569,1247.158,-15827.288,-318,-486,-39,,2007-01-05 08:12:28.664
13.590363,593,-451,-2166,114,141,75,3750.008,1550.302,1229.122,-15825.887,,,,,2007-01-05 08:12:28.684
13.610352,482,-478,-2181,154,157,-19,3741.644,1582.573,1210.144,-15826.135,,,,,2007-01-05 08:12:28.704
13.630371,375,-537,-2154,148,156,2,3737.679,1611.953,1192.76,-15825.426,,,,,2007-01-05 08:12:28.724
13.650391,303,-466,-2202,130,132,5,3731.456,1637.324,1177.167,-15825.458,,,,,2007-01-05 08:12:28.744
13.67038,331,-527,-2029,121,134,-26,3720.647,1661.015,1161.946,-15826.659,-311,-498,-37,,2007-01-05 08:12:28.764
13.690399,349,-484,-2067,112,119,-43,3709.481,1681.459,1150.84,-15827.933,-311,-498,-37,25667,2007-01-05 08:12:28.784
13.710449,356,-306,-2044,99,83,-46,3698.717,1700.128,1145.982,-15828.81,,,,,2007-01-05 08:12:28.804
13.730408,374,-450,-2110,108,61,-58,3688.684,1721.227,1144.038,-15829.011,,,,,2007-01-05 08:12:28.824
13.750397,460,-473,-2071,137,44,-38,3680.418,1745.068,1144.538,-15828.289,,,,,2007-01-05 08:12:28.844
13.770417,389,-448,-2069,141,37,-27,3672.246,1769.21,1143.757,-15827.563,-317,-499,-36,,2007-01-05 08:12:28.864
13.790436,242,-468,-2169,134,57,-27,3665.559,1795.225,1140.892,-15826.391,,,,,2007-01-05 08:12:28.884
13.810456,250,-502,-2218,161,39,-28,3647.572,1824.046,1142.019,-15827.17,,,,,2007-01-05 08:12:28.904
13.830445,230,-465,-2102,165,44,-102,3628.693,1848.473,1148.492,-15828.207,,,,,2007-01-05 08:12:28.924
13.850464,491,-447,-1926,147,-8,-115,3612.827,1862.587,1149.533,-15830.106,,,,,2007-01-05 08:12:28.944
13.870453,783,-369,-1963,36,58,-35,3614.08,1863.705,1133.911,-15830.815,-341,-505,-26,,2007-01-05 08:12:28.964
13.890473,735,-361,-2231,-43,142,59,3639.923,1861.838,1108.699,-15826.899,,,,,2007-01-05 08:12:28.984
13.910523,346,-451,-2369,-17,98,229,3674.416,1873.937,1114.695,-15817.077,,,,,2007-01-05 08:12:29.005
13.930481,346,-557,-2330,118,-88,190,3703.212,1896.023,1142.323,-15805.754,,,,,2007-01-05 08:12:29.024
13.95047,348,-580,-2249,177,-163,157,3735.042,1922.65,1177.111,-15792.489,,,,,2007-01-05 08:12:29.044
13.97049,265,-532,-2193,189,-175,200,3786.382,1951.428,1207.185,-15774.453,-330,-510,-28,,2007-01-05 08:12:29.064
13.990509,364,-507,-2016,189,-157,360,3861.745,1983.165,1229.261,-15750.503,,,,,2007-01-05 08:12:29.085
14.010498,41,-482,-2095,195,-117,467,3936.294,2025.969,1248.265,-15725.085,,,,,2007-01-05 08:12:29.104
14.030518,106,-478,-1986,285,-98,415,4003.168,2083.77,1261.658,-15699.56,,,,,2007-01-05 08:12:29.125
14.050537,190,-430,-1796,360,-29,429,4065.967,2159.98,1265.175,-15672.816,,,,,2007-01-05 08:12:29.145
14.070526,256,-432,-1838,453,55,411,4131.1,2253.359,1267.732,-15642.4,-327,-514,-14,,2007-01-05 08:12:29.165
14.090546,390,-393,-1662,552,41,454,4201.522,2356.015,1277.958,-15607.648,,,,,2007-01-05 08:12:29.185
14.110565,488,-664,-1815,582,22,489,4275.372,2453.297,1292.154,-15571.394,,,,,2007-01-05 08:12:29.205
14.130554,344,-789,-2019,534,-12,475,4338.738,2541.958,1303.201,-15538.69,,,,,2007-01-05 08:12:29.225
14.150574,459,-948,-2106,474,30,381,4392.438,2619.083,1306.226,-15510.516,,,,,2007-01-05 08:12:29.245
14.170563,357,-1010,-2203,379,70,395,4455.716,2681.923,1301.25,-15482.121,-320,-524,-33,,2007-01-05 08:12:29.265
14.190583,367,-1159,-2152,291,53,429,4525.356,2726.953,1298.328,-15454.276,-320,-524,-33,25652,2007-01-05 08:12:29.285
14.210572,436,-1180,-2174,184,-21,456,4604.414,2749.84,1305.738,-15426.219,,,,,2007-01-05 08:12:29.305
14.230591,510,-1119,-2252,69,-124,499,4693.708,2752.427,1323.539,-15397.303,,,,,2007-01-05 08:12:29.325
14.250611,229,-974,-2297,-17,-201,532,4788.051,2741.645,1345.389,-15368.257,,,,,2007-01-05 08:12:29.345
14.2706,235,-953,-1986,-60,-241,535,4880.498,2723.529,1364.166,-15340.718,-333,-530,-34,,2007-01-05 08:12:29.365
14.290619,287,-788,-2016,-104,-228,537,4973.225,2703.617,1379.398,-15313.072,,,,,2007-01-05 08:12:29.385
14.310608,230,-784,-1990,-92,-205,519,5059.189,2697.861,1393.845,-15284.593,,,,,2007-01-05 08:12:29.405
14.330628,255,-861,-1955,25,-160,473,5131.305,2710.618,1408.286,-15256.947,,,,,2007-01-05 08:12:29.425
14.350617,251,-909,-1910,105,-120,403,5191.189,2732.084,1425.423,-15231.247,,,,,2007-01-05 08:12:29.445
14.370636,296,-808,-1859,145,-110,336,5241.037,2757.947,1442.343,-15207.904,-323,-545,-28,,2007-01-05 08:12:29.465
14.390656,283,-778,-1802,164,-82,296,5285.625,2787.811,1456.963,-15185.617,,,,,2007-01-05 08:12:29.485
14.410645,122,-1027,-1627,189,-62,271,5320.914,2816.786,1471.5,-15166.533,,,,,2007-01-05 08:12:29.505
14.430664,149,-951,-1539,147,-66,192,5348.169,2831.047,1486.116,-15152.86,,,,,2007-01-05 08:12:29.525
14.450653,251,-797,-1550,47,-93,165,5380.07,2830.703,1498.909,-15140.366,,,,,2007-01-05 08:12:29.545
14.470703,120,-763,-1661,-17,-106,194,5413.018,2824.867,1510.07,-15128.598,-340,-537,-18,,2007-01-05 08:12:29.565
14.490692,86,-1127,-1503,-21,-113,161,5433.388,2812.327,1519.224,-15122.715,,,,,2007-01-05 08:12:29.585
14.510681,324,-1064,-1714,-114,-90,66,5446.695,2777.098,1523.993,-15123.958,,,,,2007-01-05 08:12:29.605
14.530701,-6,-1044,-2331,-228,-86,17,5457.03,2726.331,1524.558,-15129.412,,,,,2007-01-05 08:12:29.625
14.55072,324,-989,-2105,-320,-144,-25,5451.278,2670.332,1523.394,-15141.585,,,,,2007-01-05 08:12:29.645
14.570709,217,-1029,-1952,-329,-93,-108,5428.022,2614.553,1523.862,-15159.616,-333,-537,-13,,2007-01-05 08:12:29.665
14.590699,323,-1097,-2108,-325,-78,-196,5394.771,2560.413,1529.169,-15180.178,,,,,2007-01-05 08:12:29.685
14.610718,499,-1026,-2212,-307,-41,-264,5360.586,2509.946,1539.197,-15199.69,,,,,2007-01-05 08:12:29.705
14.630738,432,-782,-2250,-235,-35,-301,5320.408,2462.641,1542.944,-15221.15,,,,,2007-01-05 08:12:29.725
14.650757,279,-593,-2367,-210,-24,-344,5271.347,2422.88,1538.158,-15245.067,,,,,2007-01-05 08:12:29.745
14.670746,348,-863,-2438,-187,-5,-348,5214.446,2393.491,1523.319,-15270.746,-339,-538,-12,,2007-01-05 08:12:29.765
14.690766,187,-913,-1863,-170,102,-360,5148.351,2371.95,1505.135,-15298.312,-339,-538,-12,25656,2007-01-05 08:12:29.785
14.710755,171,-1109,-2071,-160,111,-381,5077.822,2347.947,1480.193,-15327.992,,,,,2007-01-05 08:12:29.805
14.730774,585,-902,-2282,-207,212,-425,5017.118,2320.761,1451.066,-15354.883,,,,,2007-01-05 08:12:29.825
14.750794,537,-1015,-2906,-188,200,-357,4964.128,2296.853,1420.935,-15378.5,,,,,2007-01-05 08:12:29.845
14.770783,15,-458,-1280,-141,189,-321,4921.217,2280.23,1384.318,-15398.093,-341,-533,-17,,2007-01-05 08:12:29.865
14.790802,267,-896,-2484,-157,210,-250,4884.629,2252.39,1341.684,-15417.602,,,,,2007-01-05 08:12:29.885
14.810791,525,-627,-1959,-273,217,-203,4862.107,2210.462,1299.316,-15434.409,,,,,2007-01-05 08:12:29.905
14.830811,538,-311,-1883,-336,160,-115,4837.15,2167.218,1263.662,-15451.335,,,,,2007-01-05 08:12:29.925
14.85083,255,-255,-919,-322,134,-122,4813.447,2127.815,1238.677,-15466.229,,,,,2007-01-05 08:12:29.945
14.870819,244,-467,-1168,-271,105,-109,4802.44,2091.842,1221.826,-15475.896,-336,-513,-9,,2007-01-05 08:12:29.965
14.890808,460,-802,-1375,-235,55,-66,4806.276,2060.738,1212.872,-15479.581,,,,,2007-01-05 08:12:29.985
14.910828,364,-784,-1610,-188,65,-13,4825.497,2030.506,1209.732,-15477.842,,,,,2007-01-05 08:12:30.005
14.930908,365,-595,-1794,-173,-1,60,4855.359,2000.423,1212.315,-15472.218,,,,,2007-01-05 08:12:30.025
14.950836,351,-708,-2106,-146,-45,130,4895.285,1975.839,1221.124,-15462.1,,,,,2007-01-05 08:12:30.045
14.970856,335,-581,-2011,-86,-90,194,4937.522,1960.045,1237.534,-15449.37,-331,-525,-20,,2007-01-05 08:12:30.065
14.990845,-148,-305,-2400,-34,-154,222,4987.064,1951.438,1259.761,-15432.742,,,,,2007-01-05 08:12:30.085
15.010865,313,-190,-1517,39,-239,318,5042.742,1952.515,1287.512,-15412.209,,,,,2007-01-05 08:12:30.105
15.030884,378,-432,-2006,136,-346,367,5092.462,1959.346,1335.383,-15390.906,,,,,2007-01-05 08:12:30.125
15.050904,377,-978,-2331,149,-322,307,5158.038,1966.777,1379.924,-15364.169,,,,,2007-01-05 08:12:30.145
15.070893,574,-819,-2187,80,-299,391,5226.691,1967.015,1420.537,-15337.212,-332,-512,-12,,2007-01-05 08:12:30.165
15.090912,418,-782,-1831,54,-317,383,5290.703,1964.449,1455.524,-15312.292,,,,,2007-01-05 08:12:30.185
15.110901,544,-453,-1444,48,-236,388,5350.459,1968.606,1483.894,-15288.253,,,,,2007-01-05 08:12:30.205
15.130921,524,-709,-2057,111,-169,302,5406.205,1984.574,1510.023,-15263.999,,,,,2007-01-05 08:12:30.225
15.15094,361,-1352,-2116,160,-103,327,5452.875,2015.817,1538.218,-15240.471,,,,,2007-01-05 08:12:30.245
15.170929,185,-1395,-2716,208,-28,214,5500.482,2048.639,1565.847,-15216.154,-330,-500,-30,,2007-01-05 08:12:30.265
15.190918,255,-1209,-2792,166,-101,300,5565.614,2078.733,1598.27,-15184.985,-330,-500,-30,25644,2007-01-05 08:12:30.285
15.210938,743,-942,-2382,193,-218,469,5621.423,2118.193,1630.392,-15155.531,,,,,2007-01-05 08:12:30.305
15.230957,569,-1348,-2084,294,-149,385,5678.874,2170.286,1659.765,-15123.52,,,,,2007-01-05 08:12:30.325
15.250946,-42,-2163,-2235,334,-33,356,5739.588,2225.017,1681.589,-15090.199,,,,,2007-01-05 08:12:30.345
15.270966,301,-1435,-2679,230,-51,403,5807.014,2270.301,1701.716,-15055.362,-336,-499,-15,,2007-01-05 08:12:30.365
15.290985,362,-1744,-2065,200,-164,468,5882.419,2298.78,1714.66,-15020.257,,,,,2007-01-05 08:12:30.385
15.310974,100,-569,-2671,114,-88,462,5970.304,2320.885,1745.292,-14978.596,,,,,2007-01-05 08:12:30.405
15.330994,329,-1359,-1596,122,-325,636,6054.162,2341.758,1782.136,-14937.293,,,,,2007-01-05 08:12:30.425
15.351013,322,-1619,-2325,131,-185,451,6128.281,2350.681,1815.234,-14901.639,,,,,2007-01-05 08:12:30.445
15.371002,-95,-1112,-2441,32,-220,410,6195.943,2345.813,1843.588,-14870.914,-334,-514,-21,,2007-01-05 08:12:30.465
15.391022,220,-1252,-2211,-31,-334,394,6247.721,2341.831,1873.483,-14846.121,,,,,2007-01-05 08:12:30.485
15.411011,-172,-1221,-1445,14,-156,273,6292.465,2337.39,1907.556,-14823.567,,,,,2007-01-05 08:12:30.505
15.431031,232,-1043,-2429,-7,-154,181,6325.306,2324.52,1936.669,-14807.831,,,,,2007-01-05 08:12:30.525
15.45105,34,-602,-975,-87,-218,161,6341.004,2310.836,1964.719,-14799.561,,,,,2007-01-05 08:12:30.545
15.47107,-309,-1294,-1483,-30,-153,44,6348.901,2298.952,1997.833,-14793.592,-337,-519,-14,,2007-01-05 08:12:30.565
15.491059,-181,-1661,-1285,23,-153,-63,6342.161,2285.05,2029.029,-14794.391,,,,,2007-01-05 08:12:30.585
15.511078,448,-1443,-2337,-31,-218,-97,6332.033,2266.796,2058.627,-14797.448,,,,,2007-01-05 08:12:30.605
15.531067,113,-1162,-2383,-54,-201,-98,6323.106,2245.685,2091.485,-14799.877,,,,,2007-01-05 08:12:30.625
15.551087,314,-1155,-2337,-84,-203,-109,6305.948,2215.294,2124.279,-14807.105,,,,,2007-01-05 08:12:30.645
15.571076,253,-1067,-3068,-100,-239,-161,6287.802,2184.857,2155.73,-14814.797,-331,-532,-6,,2007-01-05 08:12:30.665
15.591095,-169,-1050,-1062,-109,-186,-159,6267.002,2155.926,2186.253,-14823.373,,,,,2007-01-05 08:12:30.685
15.611084,254,-558,-2277,-68,-228,-188,6246.782,2129.04,2217.694,-14831.121,,,,,2007-01-05 08:12:30.705
15.631104,333,-1143,-1148,-73,-205,-149,6238.137,2099.864,2254.162,-14833.422,,,,,2007-01-05 08:12:30.725
15.651123,651,-1272,-3081,-94,-245,-91,6229.992,2067.951,2296.085,-14834.898,,,,,2007-01-05 08:12:30.745
15.671112,-21,-961,-1682,-90,-307,-93,6224.344,2036.758,2336.789,-14835.229,-330,-536,-10,,2007-01-05 08:12:30.765
15.691132,598,-590,-2776,-76,-272,-71,6214.179,2006.322,2372.51,-14837.967,-330,-536,-10,25675,2007-01-05 08:12:30.785
15.711121,452,-1189,-3089,-67,-205,-109,6201.207,1984.512,2403.529,-14841.335,,,,,2007-01-05 08:12:30.805
15.73114,984,-558,-2432,-21,-132,-179,6177.259,1966.326,2423.945,-14850.419,,,,,2007-01-05 08:12:30.825
15.75116,1139,-1142,-3034,-26,-97,-203,6160.415,1954.781,2439.873,-14856.331,,,,,2007-01-05 08:12:30.845
15.771149,305,-1680,-3125,-38,-79,-145,6134.328,1951.877,2450.46,-14865.762,-320,-533,-7,,2007-01-05 08:12:30.865
15.791168,193,-569,-1085,52,-17,-202,6112.866,1954.842,2457.726,-14873.012,,,,,2007-01-05 08:12:30.885
15.811157,287,-236,-764,61,1,-124,6090.943,1961.588,2465.112,-14879.894,,,,,2007-01-05 08:12:30.905
15.831177,215,-970,-1839,75,22,-130,6079.951,1972.133,2473.516,-14881.601,,,,,2007-01-05 08:12:30.925
15.851197,562,-582,-2681,72,-2,-49,6071.178,1986.692,2481.748,-14881.875,,,,,2007-01-05 08:12:30.945
15.871186,151,-793,-1211,82,3,-33,6063.587,2004.71,2489.48,-14881.262,-317,-523,-20,,2007-01-05 08:12:30.965
15.891205,592,-446,-1725,65,-14,14,6052.723,2018.654,2495.035,-14882.87,,,,,2007-01-05 08:12:30.985
15.911255,324,-290,-1350,63,-10,-9,6037.642,2035.013,2496.64,-14886.498,,,,,2007-01-05 08:12:31.005
15.931183,515,-719,-1447,91,30,-64,6017.223,2048.482,2498.754,-14892.562,,,,,2007-01-05 08:12:31.025
15.951203,240,-1008,-2048,95,46,-156,5993.459,2061.143,2498.627,-14900.417,,,,,2007-01-05 08:12:31.045
15.971222,432,-517,-381,68,35,-132,5967.674,2067.459,2497.903,-14910.01,-306,-512,-5,,2007-01-05 08:12:31.065
15.991242,689,-162,-2544,59,97,-207,5943.463,2082.241,2496.292,-14917.891,,,,,2007-01-05 08:12:31.085
16.011231,89,-1182,-1678,77,49,-129,5921.64,2093.556,2493.159,-14925.508,,,,,2007-01-05 08:12:31.105
16.03125,536,-766,-927,69,77,-139,5904.59,2110.827,2485.758,-14931.064,,,,,2007-01-05 08:12:31.125
16.051239,-417,-1203,-1307,69,97,-85,5887.763,2130.331,2477.311,-14936.341,,,,,2007-01-05 08:12:31.145
16.071259,1006,-262,-2900,114,156,-111,5878.949,2155.833,2467.485,-14937.781,-300,-525,-2,,2007-01-05 08:12:31.165
16.091248,-175,-1540,-2301,95,99,-36,5866.72,2183.284,2457.309,-14940.279,,,,,2007-01-05 08:12:31.185
16.111267,-101,-910,-2063,141,115,-38,5855.1,2217.704,2447.911,-14941.31,,,,,2007-01-05 08:12:31.205
16.131287,107,-970,-1524,157,137,-50,5842.113,2254.082,2433.696,-14943.272,,,,,2007-01-05 08:12:31.225
16.151337,450,-1003,-2188,178,146,-52,5828.183,2289.671,2420.566,-14945.433,,,,,2007-01-05 08:12:31.245
16.171295,207,-1769,-2666,143,189,-92,5818.68,2321.499,2407.033,-14946.412,-304,-529,-7,,2007-01-05 08:12:31.265
16.191315,1413,-1484,-3594,130,145,-15,5810.062,2353.616,2395.758,-14946.553,-304,-529,-7,25703,2007-01-05 08:12:31.285
16.211304,-177,-333,-448,108,130,-20,5799.95,2374.043,2386.629,-14948.71,,,,,2007-01-05 08:12:31.305
16.231324,-214,-1388,-1512,90,104,-49,5789.359,2397.199,2380.336,-14950.123,,,,,2007-01-05 08:12:31.325
16.251313,704,-1181,-2792,92,80,-20,5780.175,2418.198,2374.196,-14951.271,,,,,2007-01-05 08:12:31.345
16.271332,11,-631,-921,86,117,-56,5775.63,2434.158,2367.225,-14951.543,-304,-529,-10,,2007-01-05 08:12:31.365
16.291321,221,-601,-1567,53,100,-9,5773.967,2447.308,2357.201,-14951.623,,,,,2007-01-05 08:12:31.385
16.311341,116,-4,-826,39,86,61,5779.733,2455.589,2346.18,-14949.77,,,,,2007-01-05 08:12:31.405
16.33136,-45,-599,-350,36,64,72,5788.623,2470.401,2328.849,-14946.6,,,,,2007-01-05 08:12:31.425
16.35138,563,184,-2246,24,130,112,5803.344,2485.781,2315.096,-14940.477,,,,,2007-01-05 08:12:31.445
16.371369,491,-237,-726,42,75,183,5824.892,2499.606,2301.023,-14931.957,-305,-532,-11,,2007-01-05 08:12:31.465
16.391388,-626,-1190,-227,51,70,148,5846.746,2510.706,2285.696,-14923.905,,,,,2007-01-05 08:12:31.485
16.411377,263,-1552,-2603,11,77,159,5868.984,2522.99,2270.47,-14915.426,,,,,2007-01-05 08:12:31.505
16.431397,1063,-698,-1281,24,61,214,5893.04,2536.79,2253.724,-14906.138,,,,,2007-01-05 08:12:31.525
16.451416,-217,-2051,-2004,4,77,132,5911.86,2542.702,2241.326,-14899.546,,,,,2007-01-05 08:12:31.545
16.471405,324,-671,-2688,-52,68,102,5927.161,2545.433,2226.363,-14895.243,-307,-544,-4,,2007-01-05 08:12:31.565
16.491425,202,-855,-2595,-84,21,156,5938.839,2540.748,2211.019,-14893.677,,,,,2007-01-05 08:12:31.585
16.511414,-752,-2430,-3144,-79,54,44,5949.497,2526.748,2199.245,-14893.549,,,,,2007-01-05 08:12:31.605
16.531433,196,-492,-288,-105,-1,39,5962.197,2520.893,2183.204,-14891.822,,,,,2007-01-05 08:12:31.625
16.551453,217,-2451,-3669,-140,63,88,5977.838,2510.682,2169.921,-14889.218,,,,,2007-01-05 08:12:31.645
16.571442,-37,-340,-908,-98,-1,136,5994.906,2501.162,2156.896,-14885.85,-312,-544,-11,,2007-01-05 08:12:31.665
16.591461,61,-2392,-2927,-72,33,64,6008.635,2493.579,2139.804,-14884.053,,,,,2007-01-05 08:12:31.685
16.61145,462,-372,-1886,-108,46,77,6024.296,2489.624,2122.5,-14880.862,,,,,2007-01-05 08:12:31.705
16.63147,-396,-347,-177,-95,66,170,6043.514,2483.862,2103.272,-14876.762,,,,,2007-01-05 08:12:31.725
16.65149,896,-1508,-311,-88,88,112,6060.559,2473.628,2083.891,-14874.26,,,,,2007-01-05 08:12:31.745
16.671479,803,-548,-2369,-95,57,86,6080.22,2465.506,2063.153,-14870.475,-315,-543,-5,,2007-01-05 08:12:31.765
16.691498,-1168,-1275,-1660,-171,48,101,6100.984,2448.615,2047.99,-14866.857,-315,-543,-5,25677,2007-01-05 08:12:31.785
16.711487,-342,-150,151,-151,-20,156,6124.905,2433.811,2030.057,-14861.911,,,,,2007-01-05 08:12:31.805
16.731507,-807,-585,1208,-159,38,176,6150.629,2416.99,2011.147,-14856.603,,,,,2007-01-05 08:12:31.826
16.751526,-426,-980,-175,-180,96,148,6182.693,2397.797,1997.401,-14848.256,,,,,2007-01-05 08:12:31.846
16.771515,-117,141,661,-134,30,174,6214.752,2380.957,1981.402,-14839.723,-315,-548,-12,,2007-01-05 08:12:31.866
16.791504,585,-633,-1348,-136,13,179,6240.759,2365.255,1965.468,-14833.437,,,,,2007-01-05 08:12:31.886
16.811524,-472,-374,916,-110,83,183,6273.915,2358.224,1944.508,-14823.329,,,,,2007-01-05 08:12:31.906
16.831543,102,422,912,-85,82,196,6304.461,2357.981,1920.347,-14813.554,,,,,2007-01-05 08:12:31.926
16.851532,203,-75,-29,-39,116,172,6332.909,2361.625,1896.835,-14803.866,,,,,2007-01-05 08:12:31.946
16.871552,1077,-357,-1071,-57,96,178,6354.582,2367.812,1872.527,-14796.683,-319,-537,-20,,2007-01-05 08:12:31.966
16.891571,1841,-1014,-4695,-43,246,84,6379.337,2370.919,1853.404,-14787.939,,,,,2007-01-05 08:12:31.986
16.91156,2296,-1274,-3569,-49,94,106,6394.126,2367.695,1830.007,-14784.982,,,,,2007-01-05 08:12:32.006
16.93158,-716,-214,670,-58,136,24,6408.325,2363.361,1809.714,-14782.025,,,,,2007-01-05 08:12:32.026
16.951569,114,157,-193,-90,57,84,6413.763,2356.089,1782.781,-14784.1,,,,,2007-01-05 08:12:32.046
16.971588,-751,-3395,-4708,-143,138,78,6420.42,2345.774,1757.944,-14785.825,-325,-531,-10,,2007-01-05 08:12:32.066
16.991608,-695,-504,-632,-144,66,108,6422.263,2344.13,1724.82,-14789.186,,,,,2007-01-05 08:12:32.086
17.011597,32,-1488,-2437,-119,160,31,6426.991,2333.876,1698.346,-14791.817,,,,,2007-01-05 08:12:32.106
17.031586,-754,-479,-1459,-112,123,44,6426.682,2333.787,1664.553,-14795.807,,,,,2007-01-05 08:12:32.126
17.051605,-507,-2450,-1866,-98,197,-21,6425.697,2334.365,1633.345,-14799.621,,,,,2007-01-05 08:12:32.146
17.071625,895,122,-1059,-75,228,-33,6424.086,2345.534,1603.517,-14801.816,-330,-526,-5,,2007-01-05 08:12:32.166
17.091645,950,-1820,-3585,-21,226,-75,6423.473,2358.9,1574.59,-14803.063,,,,,2007-01-05 08:12:32.186
17.111634,-1172,-1004,-682,-17,191,-43,6421.844,2368.144,1552.859,-14804.59,,,,,2007-01-05 08:12:32.206
17.131653,-968,-1332,-1677,13,93,-6,6417.998,2377.565,1532.73,-14806.845,,,,,2007-01-05 08:12:32.226
17.151673,1542,-179,-5384,-5,48,53,6411.616,2381.409,1517.969,-14810.512,,,,,2007-01-05 08:12:32.246
17.171662,-2234,-1427,-1352,-17,23,39,6402.78,2381.201,1504.784,-14815.713,-324,-527,-18,,2007-01-05 08:12:32.266
17.191651,-1585,-2509,-1904,-60,7,77,6391.283,2383.861,1487.108,-14822.032,-324,-527,-18,25677,2007-01-05 08:12:32.286
17.21167,-476,-1027,-1260,-66,69,-25,6382.303,2392.531,1466.757,-14826.532,,,,,2007-01-05 08:12:32.306
17.23169,-810,-897,-842,-84,12,-11,6360.828,2386.025,1452.983,-14838.161,,,,,2007-01-05 08:12:32.326
17.251679,-392,-1976,-3313,-77,72,-116,6338.953,2377.801,1439.847,-14850.118,,,,,2007-01-05 08:12:32.346
17.271698,-364,-2149,-4101,-82,127,-119,6312.576,2381.667,1416.721,-14862.953,-328,-513,-22,,2007-01-05 08:12:32.366
17.291718,-719,-1462,-3948,-46,118,-135,6278.117,2388.859,1396.3,-14878.319,,,,,2007-01-05 08:12:32.386
17.311707,1182,-1415,-4916,-45,144,-147,6237.741,2404.863,1373.006,-14894.882,,,,,2007-01-05 08:12:32.406
17.331726,1187,-350,-3878,-48,169,-166,6197.156,2416.995,1355.282,-14911.473,,,,,2007-01-05 08:12:32.426
17.351715,-935,-1800,-3235,0,135,-166,6152.459,2443.442,1333.822,-14927.598,,,,,2007-01-05 08:12:32.446
17.371796,-326,-482,-2853,25,148,-165,6105.161,2470.478,1309.358,-14944.723,-338,-513,-13,,2007-01-05 08:12:32.466
17.391754,419,-1060,-2966,33,203,-226,6057.26,2502.412,1278.616,-14961.554,,,,,2007-01-05 08:12:32.486
17.411774,-1967,-888,1185,44,203,-182,6006.85,2526.001,1259.615,-14979.515,,,,,2007-01-05 08:12:32.506
17.431763,2368,-1120,-2507,64,187,-238,5954.078,2550.944,1240.504,-14997.941,,,,,2007-01-05 08:12:32.526
17.451752,-3961,-1292,969,46,148,-260,5898.847,2576.277,1224.905,-15016.705,,,,,2007-01-05 08:12:32.546
17.471772,1755,-104,-5181,81,181,-234,5852.691,2605.363,1199.056,-15031.826,-326,-520,-11,,2007-01-05 08:12:32.566
17.491791,1085,-515,-1134,37,103,-204,5798.19,2621.327,1183.193,-15051.416,,,,,2007-01-05 08:12:32.586
17.51178,1366,-771,-2034,27,106,-207,5739.334,2651.798,1162.912,-15070.205,,,,,2007-01-05 08:12:32.606
17.5318,-900,-2114,-2697,97,163,-289,5676.552,2678.912,1147.054,-15090.391,,,,,2007-01-05 08:12:32.626
17.551789,-942,-1548,-470,80,167,-295,5609.288,2703.043,1134.528,-15112.171,,,,,2007-01-05 08:12:32.646
17.571808,-1180,-2523,-2601,126,200,-336,5543.409,2732.397,1116.981,-15132.495,-324,-525,-31,,2007-01-05 08:12:32.666
17.591797,1441,-835,-977,108,246,-432,5465.098,2761.706,1105.425,-15156.489,,,,,2007-01-05 08:12:32.686
17.611817,1637,-767,-1750,156,302,-529,5390.045,2788.404,1100.179,-15178.842,,,,,2007-01-05 08:12:32.706
17.631836,-240,-477,101,170,247,-542,5317.322,2813.618,1096.565,-15200.086,,,,,2007-01-05 08:12:32.726
17.651825,-958,273,-940,152,163,-434,5244.73,2838.088,1095.007,-15220.856,,,,,2007-01-05 08:12:32.746
17.671845,935,-1729,-4661,152,174,-440,5177.674,2859.354,1091.411,-15240.08,-340,-527,-27,,2007-01-05 08:12:32.766
17.691834,-1067,-855,-2212,82,113,-403,5109.99,2881.259,1098.097,-15258.308,-340,-527,-27,25660,2007-01-05 08:12:32.786
17.711853,-1184,682,-2299,72,-3,-311,5044.652,2899.246,1095.316,-15276.831,,,,,2007-01-05 08:12:32.806
17.731873,-205,-1798,-3299,59,-7,-346,4981.461,2919.833,1090.347,-15293.992,,,,,2007-01-05 08:12:32.826
17.751862,645,-2168,-2068,81,25,-375,4911.29,2939.432,1091.888,-15312.811,,,,,2007-01-05 08:12:32.846
17.771881,-1303,-1570,-869,136,143,-494,4846.169,2965.787,1091.035,-15328.53,-340,-539,-22,,2007-01-05 08:12:32.866
17.79187,1165,-2290,-3226,132,163,-508,4776.363,2980.495,1098.336,-15347.055,,,,,2007-01-05 08:12:32.886
17.81189,3156,84,-2768,106,145,-449,4709.963,3001.84,1101.132,-15363.208,,,,,2007-01-05 08:12:32.906
17.831909,2296,-1573,-5657,130,159,-411,4642.73,3012.437,1110.136,-15380.94,,,,,2007-01-05 08:12:32.926
17.851898,4418,-512,-3663,67,81,-372,4578.977,3029.362,1118.156,-15396.139,,,,,2007-01-05 08:12:32.946
17.871918,88,-1183,-3291,64,44,-284,4521.418,3039.972,1125.073,-15410.548,-326,-532,-18,,2007-01-05 08:12:32.966
17.891907,1044,-3165,-2372,112,39,-302,4470.728,3060.822,1116.499,-15421.829,,,,,2007-01-05 08:12:32.986
17.911988,128,-1813,-669,90,112,-327,4411.849,3075.3,1125.297,-15435.26,,,,,2007-01-05 08:12:33.006
17.931946,-149,-375,94,90,203,-410,4364.523,3091.616,1130.833,-15445.048,,,,,2007-01-05 08:12:33.026
17.951935,-633,-177,-2124,91,83,-328,4319.058,3108.947,1138.988,-15453.748,,,,,2007-01-05 08:12:33.046
17.971955,1432,-2302,-4230,33,11,-205,4264.153,3117.99,1138.639,-15467.193,-315,-552,-12,,2007-01-05 08:12:33.066
17.991944,683,-910,-1016,28,156,-322,4222.94,3125.195,1143.354,-15476.696,,,,,2007-01-05 08:12:33.086
18.011963,-1543,-1433,-1129,49,75,-257,4181.873,3137.538,1151.849,-15484.717,,,,,2007-01-05 08:12:33.106
18.031983,1242,-1315,-3334,18,55,-221,4141.833,3144.084,1151.194,-15494.197,,,,,2007-01-05 08:12:33.126
18.051972,-307,-1238,-1764,24,14,-188,4100.602,3151.931,1164.708,-15502.557,,,,,2007-01-05 08:12:33.146
18.071991,7,-2422,-584,89,-23,-242,4060.091,3160.244,1166.492,-15511.391,-318,-550,-19,,2007-01-05 08:12:33.166
18.092011,-1981,714,-848,112,91,-236,4018.592,3185.706,1171.911,-15516.58,,,,,2007-01-05 08:12:33.186
18.112,-1298,-2868,-2614,97,42,-172,3980.082,3195.967,1179.637,-15523.809,,,,,2007-01-05 08:12:33.206
18.131989,-729,-1303,-1452,113,-79,-136,3936.264,3214.416,1186.58,-15530.641,,,,,2007-01-05 08:12:33.226
18.152039,-1097,-4003,-681,92,-16,-227,3886.422,3238.672,1187.164,-15538.108,,,,,2007-01-05 08:12:33.246
18.172028,484,862,-672,113,150,-311,3842.734,3266.343,1181.036,-15543.648,-319,-551,-20,,2007-01-05 08:12:33.266
18.192017,4176,302,-2024,124,185,-288,3809.499,3265.931,1181.009,-15551.915,-319,-551,-20,25691,2007-01-05 08:12:33.286
18.212036,-656,-3781,-3846,10,-20,-138,3772.958,3287.661,1173.922,-15556.78,,,,,2007-01-05 08:12:33.306
18.232056,1067,609,-892,8,80,-156,3735.225,3297.169,1157.67,-15565.089,,,,,2007-01-05 08:12:33.326
18.252045,1982,1133,-3319,35,216,-265,3706.755,3295.307,1154.846,-15572.498,,,,,2007-01-05 08:12:33.346
18.272064,3591,-800,-1715,14,82,-136,3679.282,3294.945,1151.747,-15579.317,-319,-546,-6,,2007-01-05 08:12:33.366
18.292084,3950,-1332,-2704,-1,-66,-56,3633.02,3290.173,1164.311,-15590.245,,,,,2007-01-05 08:12:33.386
18.312073,-3343,-3369,4385,23,220,-266,3604.827,3300.692,1166.111,-15594.431,,,,,2007-01-05 08:12:33.406
18.332093,1974,-2562,-9100,45,35,-193,3572.045,3329.031,1148.22,-15597.278,,,,,2007-01-05 08:12:33.426
18.352112,-3252,-4002,266,-31,85,-229,3534.211,3351.098,1135.064,-15602.133,,,,,2007-01-05 08:12:33.446
18.372101,1396,-2844,-2567,-13,169,-200,3502.868,3372.476,1119.776,-15605.7,-315,-557,-10,,2007-01-05 08:12:33.466
18.392121,2964,-1269,-3751,-2,135,-159,3478.57,3374.556,1128.412,-15610.062,,,,,2007-01-05 08:12:33.486
18.41211,-3033,-1084,127,-37,-51,-63,3447.147,3367.196,1127.414,-15618.692,,,,,2007-01-05 08:12:33.506
18.432129,-492,-1243,-2498,-24,102,-184,3424.49,3369.521,1105.294,-15624.754,,,,,2007-01-05 08:12:33.526
18.452118,770,553,-3212,-28,48,-93,3397.324,3362.061,1105.734,-15632.259,,,,,2007-01-05 08:12:33.546
18.472107,-38,488,-2435,-7,-5,-129,3365.441,3355.314,1088.477,-15641.813,-314,-553,-15,,2007-01-05 08:12:33.566
18.492157,2098,-1893,-3310,61,190,-328,3329.683,3357.048,1082.466,-15649.509,,,,,2007-01-05 08:12:33.586
18.512146,701,-2777,-2186,31,163,-181,3300.108,3388.97,1074.836,-15649.419,,,,,2007-01-05 08:12:33.606
18.532166,2545,-853,-5506,85,-92,-37,3250.137,3405.865,1077.923,-15655.996,,,,,2007-01-05 08:12:33.626
18.552155,-1876,239,784,75,249,-357,3217.865,3419.001,1062.947,-15660.822,,,,,2007-01-05 08:12:33.646
18.572174,-1881,-315,-4311,113,-5,-205,3181.182,3423.553,1056.127,-15667.782,-311,-552,-7,,2007-01-05 08:12:33.666
18.592255,-4340,-2255,2917,49,115,-261,3140.492,3445.595,1040.387,-15672.212,,,,,2007-01-05 08:12:33.686
18.612183,217,-2074,-5022,38,167,-212,3110.068,3453.661,1029.113,-15677.247,,,,,2007-01-05 08:12:33.706
18.632172,4851,-2372,-2688,28,37,-93,3082.419,3445.681,1023.678,-15684.817,,,,,2007-01-05 08:12:33.726
18.652191,1958,6,-4173,46,99,-182,3057.197,3453.164,1033.748,-15687.447,,,,,2007-01-05 08:12:33.746
18.672211,-2330,-1517,-2144,23,13,-110,3038.285,3448.464,1029.639,-15692.425,-320,-555,-12,,2007-01-05 08:12:33.766
18.69223,-2273,-646,-1254,3,69,-103,3017.185,3469.776,1016.024,-15692.685,-320,-555,-12,25697,2007-01-05 08:12:33.786
18.71222,4233,-2016,-5563,44,33,-88,2999.078,3473.559,1002.638,-15696.18,,,,,2007-01-05 08:12:33.806
18.732209,-1574,-586,-2165,50,102,-164,2978.954,3495.09,992.944,-15695.849,,,,,2007-01-05 08:12:33.826
18.752228,-4215,-4384,4975,66,145,-191,2958.927,3501.804,992.869,-15698.145,,,,,2007-01-05 08:12:33.846
18.772248,-437,1274,-1156,92,-106,-61,2924.367,3529.673,976.777,-15699.389,-310,-563,-9,,2007-01-05 08:12:33.866
18.792267,-1169,-1079,-3750,44,271,-287,2894.974,3535.4,981.67,-15703.243,,,,,2007-01-05 08:12:33.886
18.812256,2884,-859,1142,75,86,-129,2877.846,3545.133,970.87,-15704.868,,,,,2007-01-05 08:12:33.906
18.832245,1629,-1063,-3551,75,124,-126,2864.783,3554.395,955.45,-15706.108,,,,,2007-01-05 08:12:33.926
18.852265,-4828,560,-2401,13,117,-123,2859.825,3548.935,961.281,-15707.891,,,,,2007-01-05 08:12:33.946
18.872284,5054,849,-283,-47,13,64,2860.97,3547.288,939.415,-15709.377,-311,-552,-17,,2007-01-05 08:12:33.966
18.892273,552,-310,-706,-65,44,117,2870.346,3537.546,937.105,-15710.001,,,,,2007-01-05 08:12:33.986
18.912293,-5624,-4313,-787,-31,-60,181,2876.366,3519.083,932.848,-15713.3,,,,,2007-01-05 08:12:34.006
18.932312,4008,-227,-4484,-91,147,5,2895.844,3520.806,920.811,-15710.046,,,,,2007-01-05 08:12:34.026
18.952301,-6482,-2581,-3342,-7,-31,91,2899.661,3511.018,924.356,-15711.325,,,,,2007-01-05 08:12:34.046
18.972321,-4117,-700,-379,-23,118,16,2919.084,3519.328,905.468,-15706.968,-315,-562,-12,,2007-01-05 08:12:34.066
18.99234,3987,248,-1671,18,-84,190,2922.069,3518.334,899.181,-15706.997,,,,,2007-01-05 08:12:34.086
19.012329,5202,-352,-5953,28,119,81,2937.271,3528.838,885.73,-15702.568,,,,,2007-01-05 08:12:34.106
19.032318,4567,-1245,-5737,58,-70,178,2941.368,3543.347,865.59,-15699.657,,,,,2007-01-05 08:12:34.126
19.052338,-236,-1617,-7490,33,249,-59,2959.25,3554.72,860.324,-15694.014,,,,,2007-01-05 08:12:34.146
19.072357,-9226,-2595,-2134,101,-8,115,2976.109,3564.654,837.402,-15689.812,-317,-563,-15,,2007-01-05 08:12:34.166
19.092346,2320,628,-2788,8,141,20,3007.391,3574.785,814.448,-15682.749,,,,,2007-01-05 08:12:34.186
19.112366,1717,-773,-4497,47,-118,302,3023.622,3574.35,814.151,-15679.742,,,,,2007-01-05 08:12:34.206
19.132386,4293,-1153,644,-48,92,167,3048.579,3564.316,823.119,-15676.726,,,,,2007-01-05 08:12:34.226
19.152375,-1977,-1602,-5701,7,3,231,3071.35,3567.725,811.362,-15672.118,,,,,2007-01-05 08:12:34.246
19.172364,-580,548,-2333,-5,47,75,3096.34,3571.056,796.604,-15667.198,-310,-558,-11,,2007-01-05 08:12:34.266
19.192383,-2331,-989,-2532,44,58,77,3116.492,3566.27,787.052,-15664.775,-310,-558,-11,25667,2007-01-05 08:12:34.286
19.212403,1654,-2565,3199,16,-54,95,3134.962,3572.937,766.476,-15660.59,,,,,2007-01-05 08:12:34.306
19.232422,-732,-1951,1513,0,48,55,3150.627,3574.609,776.603,-15656.565,,,,,2007-01-05 08:12:34.326
19.252442,1098,-1655,-3835,-13,-73,163,3160.381,3576.984,780.784,-15653.849,,,,,2007-01-05 08:12:34.346
19.272431,-4468,470,-1412,-3,120,114,3187.078,3579.145,779.61,-15648,-314,-558,-4,,2007-01-05 08:12:34.366
19.29242,-1303,-3177,-4901,36,-124,225,3200.966,3577.715,780.185,-15645.463,,,,,2007-01-05 08:12:34.386
19.312439,2512,392,-379,-66,90,-6,3225.331,3584.861,784.668,-15638.598,,,,,2007-01-05 08:12:34.406
19.332459,2342,-788,-3759,36,-29,82,3244.888,3593.329,792.966,-15632.189,,,,,2007-01-05 08:12:34.426
19.352448,1006,-656,-5502,-1,-98,77,3266.188,3587.194,796.015,-15629.007,,,,,2007-01-05 08:12:34.446
19.372467,-1406,842,-1077,-21,-12,60,3288.371,3587.036,798.585,-15624.26,-315,-562,2,,2007-01-05 08:12:34.466
19.392456,-1264,-2120,-849,17,-173,187,3296.577,3582.19,788.69,-15624.145,,,,,2007-01-05 08:12:34.486
19.412476,3112,1774,1221,-59,-45,80,3303.132,3583.5,787.245,-15622.533,,,,,2007-01-05 08:12:34.506
19.432495,-961,-175,-4070,-21,-89,123,3300.626,3579.541,796.764,-15623.487,,,,,2007-01-05 08:12:34.526
19.452484,-4358,-1219,-4875,-40,-52,22,3304.072,3571.842,802.777,-15624.213,,,,,2007-01-05 08:12:34.546
19.472504,3410,182,1765,-114,69,-54,3309.337,3565.131,819.289,-15623.774,-304,-564,-3,,2007-01-05 08:12:34.567
19.492493,-549,-2546,-385,-4,-64,23,3305.138,3558.451,840.925,-15625.036,,,,,2007-01-05 08:12:34.586
19.512512,1925,-744,-4298,-11,55,-165,3316.231,3566.919,832.215,-15621.221,,,,,2007-01-05 08:12:34.607
19.532532,-375,-1014,-3843,-7,22,-98,3325.757,3569.635,837.616,-15618.287,,,,,2007-01-05 08:12:34.627
19.552521,-6329,-4357,-820,58,-163,33,3327.427,3572.626,833.775,-15617.453,,,,,2007-01-05 08:12:34.647
19.572541,-518,-1117,-517,19,-45,-21,3330.649,3591.904,831.954,-15612.44,-328,-565,-4,,2007-01-05 08:12:34.667
19.59253,689,-573,-4534,70,-28,49,3327.519,3607.718,841.868,-15608.93,,,,,2007-01-05 08:12:34.687
19.612549,2274,-2120,-3929,122,-105,70,3314.553,3617.439,849.532,-15609.023,,,,,2007-01-05 08:12:34.707
19.632538,-1488,63,-2043,89,-74,11,3299.143,3627.825,852.799,-15609.699,,,,,2007-01-05 08:12:34.727
19.652558,-2870,-3153,-1240,64,20,-44,3281.532,3639.976,852.968,-15610.573,,,,,2007-01-05 08:12:34.747
19.672577,-940,-3108,-336,60,-13,-26,3264.277,3655.835,834.763,-15611.469,-319,-568,-13,,2007-01-05 08:12:34.767
19.692566,-4218,-4559,166,12,66,-119,3257.927,3659.262,814.309,-15613.073,-319,-568,-13,25675,2007-01-05 08:12:34.787
19.712586,5482,-1167,-1372,-3,178,-177,3253.5,3670.175,812.934,-15611.506,,,,,2007-01-05 08:12:34.807
19.732605,-351,-1272,-5222,31,49,-131,3240.332,3672.167,836.292,-15612.543,,,,,2007-01-05 08:12:34.827
19.752594,-2071,235,3406,-9,54,-177,3238.193,3672.228,831.207,-15613.244,,,,,2007-01-05 08:12:34.847
19.772614,-1456,-2582,-2967,11,75,-123,3233.793,3670.253,839.59,-15614.171,-321,-565,-4,,2007-01-05 08:12:34.867
19.792603,3610,-86,-394,22,49,-123,3229.631,3670.8,835.247,-15615.137,,,,,2007-01-05 08:12:34.887
19.812683,1790,-1564,-2465,46,-66,-36,3219.765,3672.716,841.93,-15616.365,,,,,2007-01-05 08:12:34.907
19.832642,-2179,-1556,231,-2,18,-107,3208.645,3664.103,854.551,-15619.991,,,,,2007-01-05 08:12:34.927
19.852631,4477,680,-6114,17,41,-64,3213.189,3681.201,836.189,-15616.03,,,,,2007-01-05 08:12:34.947
19.87265,-1483,-1024,31,6,-53,66,3203.024,3669.561,850.152,-15620.103,-327,-562,-1,,2007-01-05 08:12:34.967
19.892639,-2113,-223,-7038,27,-95,64,3188.684,3661.061,861.074,-15624.433,,,,,2007-01-05 08:12:34.987
19.912659,-2087,-2231,2082,-38,26,-39,3176.174,3649.754,851.734,-15630.137,,,,,2007-01-05 08:12:35.007
19.932648,1567,1003,-6530,-36,124,-35,3169.836,3654.563,841.812,-15630.838,,,,,2007-01-05 08:12:35.027
19.952668,-394,-646,-214,-5,-61,95,3157.343,3657.976,837.044,-15632.824,,,,,2007-01-05 08:12:35.047
19.972687,3334,218,-6706,-14,-92,119,3144.256,3661.055,833.241,-15634.944,-317,-568,-6,,2007-01-05 08:12:35.067
19.992676,-3118,-2179,2691,-53,3,53,3126.47,3643.634,844.676,-15641.965,,,,,2007-01-05 08:12:35.087
20.012696,1518,-1031,2642,-20,85,42,3116.916,3661.558,829.824,-15640.481,,,,,2007-01-05 08:12:35.107
20.032715,223,-107,-1877,21,-27,78,3109.197,3676.832,810.76,-15639.434,,,,,2007-01-05 08:12:35.127
20.052704,-1413,-2206,1851,11,-9,104,3112.073,3690.04,778.447,-15637.393,,,,,2007-01-05 08:12:35.147
20.072724,-1419,-2000,-1390,-58,48,39,3118.621,3706.307,747.242,-15633.763,-315,-562,2,,2007-01-05 08:12:35.167
20.092743,-2388,-4,-3652,-95,162,36,3130.901,3723.196,722.565,-15628.455,,,,,2007-01-05 08:12:35.187
20.112732,1231,-166,221,1,58,126,3131.335,3713.283,705.48,-15631.507,,,,,2007-01-05 08:12:35.207
20.132752,-3883,-3441,1072,44,97,22,3128.567,3723.176,689.559,-15630.418,,,,,2007-01-05 08:12:35.227
20.152771,-1098,-2386,-2708,-25,39,19,3122.899,3734.214,680.65,-15629.309,,,,,2007-01-05 08:12:35.247
20.17276,-2425,-2618,-2350,-33,136,-10,3118.893,3739.808,672.792,-15629.111,-308,-564,2,,2007-01-05 08:12:35.267
20.192749,106,-1301,1793,-28,127,1,3122.472,3747.071,652.265,-15627.527,-308,-564,2,25671,2007-01-05 08:12:35.287
20.212769,2642,-60,-6932,-15,142,42,3129.778,3760.688,635.929,-15623.468,,,,,2007-01-05 08:12:35.307
20.232758,-1896,-74,-1275,13,-7,126,3137.477,3757.317,623.393,-15623.24,,,,,2007-01-05 08:12:35.327
20.252777,-1713,-1967,2675,15,11,143,3152.43,3748.099,612.595,-15622.871,,,,,2007-01-05 08:12:35.347
20.272797,4989,-1641,-3606,-49,63,172,3169.47,3755.797,603.885,-15617.913,-324,-561,-4,,2007-01-05 08:12:35.367
20.292786,6259,-1038,-6784,-54,46,170,3196.392,3753.906,576.071,-15613.931,,,,,2007-01-05 08:12:35.387
20.312805,5016,-614,-1967,-67,164,128,3226.835,3757.722,567.083,-15607.079,,,,,2007-01-05 08:12:35.407
20.332794,1878,-1348,-3488,-11,6,284,3251.858,3754.382,556.305,-15603.076,,,,,2007-01-05 08:12:35.427
20.352814,-1092,-1000,1049,17,42,229,3274.657,3761.165,548.479,-15596.95,,,,,2007-01-05 08:12:35.447
20.372834,3990,-1382,-6128,25,-60,240,3297.688,3768.247,526.619,-15591.141,-308,-562,4,,2007-01-05 08:12:35.467
20.392823,7508,-1338,-6155,-10,39,165,3312.528,3757.823,538.658,-15590.1,,,,,2007-01-05 08:12:35.487
20.412842,9379,-409,-3455,-66,41,141,3325.303,3759.733,541.107,-15586.834,,,,,2007-01-05 08:12:35.507
20.432831,-3954,-1030,-1062,-34,45,141,3339.187,3749.764,547.685,-15586.038,,,,,2007-01-05 08:12:35.527
20.452851,-2289,-1628,-3381,-25,-13,198,3364.828,3759.41,510.253,-15579.469,,,,,2007-01-05 08:12:35.547
20.47287,-5961,-2341,-649,-13,-70,240,3386.938,3748.798,495.666,-15577.706,-319,-563,7,,2007-01-05 08:12:35.567
20.492859,-3727,-1493,-1468,-52,-32,262,3408.462,3742.407,471.09,-15575.31,,,,,2007-01-05 08:12:35.587
20.512879,2582,203,-3644,-63,-79,229,3420.407,3737.627,462.491,-15574.097,,,,,2007-01-05 08:12:35.607
20.532868,1574,-2452,-1975,-46,-53,150,3425.818,3727.57,466.571,-15575.196,,,,,2007-01-05 08:12:35.627
20.552887,1770,-2027,-1600,-70,21,75,3428.157,3726.09,480.868,-15574.601,,,,,2007-01-05 08:12:35.647
20.572907,6227,-87,-8152,-25,-59,145,3430.783,3734.902,481.386,-15571.896,-319,-561,0,,2007-01-05 08:12:35.667
20.592896,2890,1121,-253,25,25,110,3437.158,3750.394,480.279,-15566.8,,,,,2007-01-05 08:12:35.687
20.612915,392,-1229,-5837,103,-43,150,3437.227,3767.727,480.895,-15562.579,,,,,2007-01-05 08:12:35.707
20.632904,1615,1172,2046,133,-3,89,3439.367,3783.792,477.541,-15558.312,,,,,2007-01-05 08:12:35.727
20.652924,4692,1164,-4383,145,17,82,3442.422,3805.117,463.081,-15552.871,,,,,2007-01-05 08:12:35.747
20.672943,-8768,-2853,75,123,36,30,3437.436,3810.804,476.424,-15552.179,-330,-566,2,,2007-01-05 08:12:35.767
20.692932,-2507,-2344,-419,97,45,-53,3430.674,3820.436,465.93,-15551.627,-330,-566,2,25661,2007-01-05 08:12:35.787
20.712952,2637,-1042,1697,77,89,-175,3422.058,3842.072,457.957,-15548.431,,,,,2007-01-05 08:12:35.807
20.732971,5628,95,-4301,18,139,-131,3420.656,3854.746,442.686,-15546.045,,,,,2007-01-05 08:12:35.827
20.75296,686,-1795,-2379,-13,65,-76,3404.489,3847.68,441.517,-15551.376,,,,,2007-01-05 08:12:35.847
20.77298,-1204,174,4189,-39,191,-180,3384.234,3834.021,463.562,-15558.528,-326,-568,5,,2007-01-05 08:12:35.867
20.792969,781,-867,-6350,-48,171,-237,3373.815,3847.297,430.558,-15558.462,,,,,2007-01-05 08:12:35.887
20.812989,-6035,-888,-229,-39,111,-161,3349.922,3835.369,448.22,-15566.069,,,,,2007-01-05 08:12:35.907
20.832978,6922,-469,-3882,-12,54,-108,3336.243,3845.448,431.651,-15566.988,,,,,2007-01-05 08:12:35.927
20.852997,-1362,-1676,-5126,-21,11,-44,3320.779,3850.857,435.729,-15568.844,,,,,2007-01-05 08:12:35.947
20.873017,8511,1301,-4171,-31,-16,45,3310.89,3850.154,425.458,-15571.408,-327,-571,8,,2007-01-05 08:12:35.967
20.893006,639,-819,-1544,-12,14,15,3299.411,3854.409,435.488,-15572.514,,,,,2007-01-05 08:12:35.987
20.913025,9702,605,-6172,56,-38,22,3292.889,3872.134,421.833,-15569.873,,,,,2007-01-05 08:12:36.007
20.933014,-515,-372,3334,69,-66,44,3267.514,3866.301,467.034,-15575.377,,,,,2007-01-05 08:12:36.027
20.953034,-3555,-4158,-7982,95,11,-20,3257.093,3892.136,441.47,-15571.871,,,,,2007-01-05 08:12:36.047
20.973023,-1500,-1682,-5429,120,-25,-111,3240.657,3917.82,412.077,-15569.665,-331,-572,7,,2007-01-05 08:12:36.067
20.993073,-5704,-3235,-1650,110,86,-208,3224.189,3924.884,388.628,-15571.907,,,,,2007-01-05 08:12:36.087
21.013062,-4356,-4651,-4361,56,154,-245,3206.689,3944.381,371.1,-15571.022,,,,,2007-01-05 08:12:36.107
21.033142,-8326,-4062,1270,14,92,-179,3189.229,3960.424,344.128,-15571.155,,,,,2007-01-05 08:12:36.127
21.05307,-7116,-2926,-2580,19,-9,-122,3174.393,3983.016,302.615,-15569.286,,,,,2007-01-05 08:12:36.147
21.073059,-3035,-2665,-4592,3,49,-131,3163.607,4000.651,259.675,-15567.735,-331,-570,10,,2007-01-05 08:12:36.167
21.093079,-4857,-2110,-1583,-6,-71,3,3144.572,4014.855,241.462,-15568.228,,,,,2007-01-05 08:12:36.187
21.113098,-2665,-782,3033,34,-114,22,3118.339,4028.352,233.497,-15570.14,,,,,2007-01-05 08:12:36.207
21.133087,10006,574,-2682,59,-14,-103,3089.249,4045.522,230.676,-15571.529,,,,,2007-01-05 08:12:36.227
21.153107,8442,816,880,64,1,-133,3045.773,4036.151,275.332,-15581.796,,,,,2007-01-05 08:12:36.247
21.173126,-868,-1500,-3277,64,7,-232,3001.137,4030.488,299.391,-15591.476,-330,-566,4,,2007-01-05 08:12:36.267
21.193115,-7749,-2017,572,79,86,-275,2965.74,4047.65,277.957,-15594.2,-330,-566,4,25675,2007-01-05 08:12:36.287
21.213135,9922,2330,258,11,205,-330,2933.472,4047.977,281.495,-15600.155,,,,,2007-01-05 08:12:36.307
21.233124,-8394,-3981,-2517,19,82,-194,2895.83,4031.613,309.876,-15610.883,,,,,2007-01-05 08:12:36.327
21.253144,129,-314,-1856,-26,23,-91,2873.489,4063.964,260.277,-15607.529,,,,,2007-01-05 08:12:36.347
21.273163,-5653,-1109,-1071,22,-41,-110,2836.356,4069.947,272.532,-15612.552,-331,-568,5,,2007-01-05 08:12:36.367
21.293152,-794,2606,-3708,38,-25,-182,2789.171,4069.224,304.943,-15620.64,,,,,2007-01-05 08:12:36.387
21.313172,-2874,-2937,-785,74,-49,-211,2740.598,4072.863,301.742,-15628.349,,,,,2007-01-05 08:12:36.407
21.333161,354,-2310,-1870,48,57,-364,2680.354,4079.043,340.734,-15636.382,,,,,2007-01-05 08:12:36.427
21.35318,5271,-235,-3896,20,148,-471,2621.154,4077.742,360.3,-15646.316,,,,,2007-01-05 08:12:36.447
21.3732,-6904,-3932,-2826,-40,263,-517,2560.726,4060.356,416.412,-15659.445,-325,-574,2,,2007-01-05 08:12:36.467
21.393189,-4437,-1047,-2310,-21,92,-289,2517.64,4077.64,401.078,-15662.341,,,,,2007-01-05 08:12:36.487
21.413208,9292,1660,-3575,-54,30,-241,2472.488,4087.814,395.666,-15667.018,,,,,2007-01-05 08:12:36.507
21.433197,-4526,-1534,1366,19,12,-199,2425.695,4089.028,388.727,-15674.188,,,,,2007-01-05 08:12:36.527
21.453217,5993,1508,-1726,82,-9,-223,2374.802,4110.062,376.494,-15676.779,,,,,2007-01-05 08:12:36.547
21.473206,-5893,-2428,4175,80,56,-335,2309.726,4107.761,389.501,-15686.784,-323,-578,-7,,2007-01-05 08:12:36.567
21.493225,-5160,-2003,-306,136,174,-423,2232.319,4121.914,410.46,-15693.742,,,,,2007-01-05 08:12:36.587
21.513245,1495,267,-2873,141,207,-515,2157.179,4135.3,418.157,-15700.524,,,,,2007-01-05 08:12:36.607
21.533234,-69,-1250,-566,123,152,-404,2086.248,4155.687,422.27,-15704.616,,,,,2007-01-05 08:12:36.627
21.553253,-6730,-704,-3638,134,97,-303,2014.375,4171.808,428.481,-15709.556,,,,,2007-01-05 08:12:36.647
21.573242,-6871,-2770,-795,91,86,-293,1944.914,4186.602,431.943,-15714.278,-311,-576,-3,,2007-01-05 08:12:36.667
21.593262,-1801,-1556,-467,70,80,-308,1880.153,4197.326,420.475,-15719.609,,,,,2007-01-05 08:12:36.687
21.613282,2120,-1723,-2742,75,145,-369,1818.225,4201.651,415.179,-15725.878,,,,,2007-01-05 08:12:36.707
21.633301,5437,-976,-4274,11,260,-426,1765.856,4212.385,403.537,-15729.277,,,,,2007-01-05 08:12:36.727
21.65329,-8931,-2634,-1383,-42,292,-338,1726.168,4205.105,400.593,-15735.704,,,,,2007-01-05 08:12:36.747
21.673279,6207,261,-4087,-59,131,-138,1698.53,4212.128,366.338,-15737.668,-310,-582,5,,2007-01-05 08:12:36.767
21.693299,-5989,-2514,1373,27,61,-67,1654.654,4220.562,357.584,-15740.284,-310,-582,5,25671,2007-01-05 08:12:36.787
21.713318,4603,-1145,-101,91,64,-176,1601.994,4228.2,343.139,-15744.003,,,,,2007-01-05 08:12:36.807
21.733307,-4200,-1425,-5524,95,194,-303,1545.772,4234.822,336.686,-15747.982,,,,,2007-01-05 08:12:36.827
21.753327,3233,-656,-3136,41,315,-389,1501.487,4250.831,314.137,-15748.42,,,,,2007-01-05 08:12:36.847
21.773346,-1160,-1888,-6593,20,213,-252,1463.395,4263.468,310,-15748.671,-308,-576,2,,2007-01-05 08:12:36.867
21.793335,-1954,-494,-4812,17,88,-92,1430.591,4263.814,305.596,-15751.677,,,,,2007-01-05 08:12:36.887
21.813355,2258,547,-812,28,81,-138,1411.676,4269.047,282.424,-15752.399,,,,,2007-01-05 08:12:36.907
21.833374,7350,-299,2318,31,81,-118,1389.951,4265.041,277.831,-15755.498,,,,,2007-01-05 08:12:36.927
21.853363,9695,568,1832,39,119,-76,1373.819,4255.526,276.092,-15759.516,,,,,2007-01-05 08:12:36.947
21.873352,-9704,-2189,593,-21,177,-77,1367.402,4236.917,281.349,-15764.994,-312,-584,-2,,2007-01-05 08:12:36.967
21.893372,-4450,-2476,-1158,-78,61,81,1378.588,4221.492,271.207,-15768.335,,,,,2007-01-05 08:12:36.987
21.913391,-5685,-4146,-724,-83,-93,254,1387.244,4211.798,277.067,-15770.066,,,,,2007-01-05 08:12:37.007
21.93338,-6411,-1243,-3727,-19,-84,156,1399.507,4207.701,287.657,-15769.887,,,,,2007-01-05 08:12:37.027
21.9534,-2864,-1582,-908,11,25,62,1422.809,4214.144,270.084,-15766.391,,,,,2007-01-05 08:12:37.047
21.973389,-6583,-1264,-1639,4,78,86,1458.642,4220.224,254.715,-15761.746,-300,-579,-4,,2007-01-05 08:12:37.067
21.993408,-5891,-1351,2211,15,-24,207,1503.043,4217.667,249.327,-15758.344,,,,,2007-01-05 08:12:37.087
22.013428,-3594,-2444,-383,36,-163,343,1549.988,4217.14,238.212,-15754.109,,,,,2007-01-05 08:12:37.107
22.033417,5359,-204,-4050,-29,-97,256,1603.334,4222.051,220.024,-15747.718,,,,,2007-01-05 08:12:37.127
22.053437,82,-814,-1802,-43,-64,198,1655.853,4201.803,251.113,-15747.234,,,,,2007-01-05 08:12:37.147
22.073426,8740,1116,-3848,-76,-8,232,1725.131,4191.051,265.257,-15742.43,-308,-590,-3,,2007-01-05 08:12:37.167
22.093445,-4355,-1636,-2075,-46,-133,406,1793.083,4170.886,295.131,-15739.66,,,,,2007-01-05 08:12:37.187
22.113434,4214,-1134,-3784,-48,-204,478,1869.287,4159.57,288.291,-15733.915,,,,,2007-01-05 08:12:37.207
22.133454,-3511,-1358,-361,-109,-208,380,1937.11,4152.931,279.202,-15727.627,,,,,2007-01-05 08:12:37.227
22.153473,5217,1443,-5968,-93,-40,245,1991.816,4139.973,297.109,-15723.882,,,,,2007-01-05 08:12:37.247
22.173462,-5370,-1013,-3418,-51,-85,249,2047.191,4125.3,293.453,-15720.694,-310,-575,12,,2007-01-05 08:12:37.267
22.193482,2640,-556,-3174,-22,-74,350,2104.483,4117.515,278.997,-15715.432,-310,-575,12,25675,2007-01-05 08:12:37.287
22.213501,-1517,-1278,435,6,-170,375,2150.761,4119.401,257.969,-15709.031,,,,,2007-01-05 08:12:37.308
22.23349,6769,-667,-5247,3,-57,176,2185.877,4117.376,260.562,-15704.671,,,,,2007-01-05 08:12:37.327
22.253601,-7118,-1746,3879,-23,74,66,2224.598,4113.659,276.493,-15699.935,,,,,2007-01-05 08:12:37.348
22.273529,-205,-445,-2680,-18,-53,249,2270.446,4114.286,272.408,-15693.277,-313,-585,4,,2007-01-05 08:12:37.368
22.293518,9310,686,-6296,33,-166,419,2298.977,4105.392,297.336,-15691,,,,,2007-01-05 08:12:37.388
22.313538,1969,-2539,-883,21,-70,216,2321.863,4102.73,321.01,-15687.86,,,,,2007-01-05 08:12:37.408
22.333527,-9414,-2255,-1225,18,53,88,2362.878,4131.082,291.897,-15674.859,,,,,2007-01-05 08:12:37.428
22.353546,-5960,-1410,-3400,58,17,117,2408.508,4145.701,280.5,-15664.259,,,,,2007-01-05 08:12:37.448
22.373535,3734,-712,950,87,-125,325,2457.261,4159.131,272.867,-15653.258,-320,-578,-3,,2007-01-05 08:12:37.468
22.393555,-2217,-2463,-9299,122,-272,344,2484.03,4166.243,289.116,-15646.848,,,,,2007-01-05 08:12:37.488
22.413574,-1436,-2099,49,44,1,22,2508.245,4163.455,309.631,-15643.334,,,,,2007-01-05 08:12:37.508
22.433563,-4846,-1215,-3148,-11,13,47,2534.903,4163.282,326.061,-15638.749,,,,,2007-01-05 08:12:37.528
22.453583,-1946,-997,3594,37,-156,185,2562.412,4164.938,328.379,-15633.776,,,,,2007-01-05 08:12:37.548
22.473572,-819,-1317,-6270,32,-191,225,2578.06,4162.59,350.326,-15631.352,-317,-582,7,,2007-01-05 08:12:37.568
22.493592,1809,-732,-101,-14,-127,66,2605.125,4154.825,341.464,-15629.126,,,,,2007-01-05 08:12:37.588
22.513611,-675,-2500,-1067,-85,-65,8,2634.837,4145.401,352.77,-15626.397,,,,,2007-01-05 08:12:37.608
22.5336,-4483,-1634,-2470,-60,-122,148,2666.38,4136.919,381.516,-15622.618,,,,,2007-01-05 08:12:37.628
22.55362,-1450,-1348,-4291,-36,-273,220,2692.394,4126.839,398.412,-15620.401,,,,,2007-01-05 08:12:37.648
22.573639,-8076,-2799,1971,-41,-155,78,2711.545,4114.477,426.235,-15619.615,-312,-582,16,,2007-01-05 08:12:37.668
