;Title, http://www.gcdataconcepts.com, HAM-IMU, MPU-9250
;Version, 1191, Build date, Nov 15 2016,  SN:CCDC30163044EA8
;Start_time, 2007-01-01, 04:15:15.319
;Temperature, -999.00, deg C,  Vbat, 4172, mv
;MPU SR, 200,Hz,  Accel sens, 2048,counts/g, Gyro sens, 16,counts/dps,  Mag SR, 10,Hz,  Mag sens, 1666,counts/mT
;Deadband, 0, counts
;DeadbandTimeout, 5,sec
;Time, Ax, Ay, Az, Gx, Gy, Gz, Qw, Qx, Qy, Qz, Mx, My, Mz, T
0.009399,-46,144,-2137,6,22,-22,16317.917,1059.586,-118.054,-1012.105,17,-661,52,34238
0.029388,-48,141,-2098,5,23,-22,16317.536,1061.957,-118.201,-1015.740,10,-654,52,34236
0.049408,-77,163,-2094,3,22,-24,16317.160,1064.538,-118.049,-1019.100
0.069397,-60,152,-2099,5,23,-21,16316.763,1067.267,-117.812,-1022.622
0.089417,-54,151,-2079,5,24,-22,16316.366,1069.970,-117.912,-1026.111
0.109406,-61,158,-2108,5,25,-21,16315.984,1072.339,-117.993,-1029.695
0.129395,-46,134,-2078,5,22,-23,16315.608,1074.705,-117.689,-1033.215,21,-669,56
0.149414,-45,154,-2107,5,22,-23,16315.219,1077.163,-117.227,-1036.851
0.169403,-55,149,-2097,6,22,-22,16314.823,1079.600,-117.117,-1040.546
0.189392,-69,148,-2085,6,22,-24,16314.439,1081.980,-116.907,-1044.113
0.209381,-58,154,-2094,5,22,-22,16314.038,1084.586,-116.808,-1047.684
0.229401,-85,144,-2087,6,23,-24,16313.620,1087.289,-116.752,-1051.382,36,-699,71
0.249420,-70,154,-2115,6,26,-24,16313.228,1089.774,-116.640,-1054.904
0.269409,-54,166,-2096,7,22,-22,16312.841,1092.214,-116.465,-1058.376
0.289398,-77,154,-2095,6,23,-20,16312.436,1094.787,-116.275,-1061.977
0.309387,-70,154,-2090,5,24,-21,16312.028,1097.265,-116.334,-1065.677
0.329407,-45,154,-2135,4,23,-23,16311.626,1099.778,-116.160,-1069.240,87,-705,60
0.349396,-46,150,-2083,5,23,-22,16311.245,1102.073,-116.196,-1072.682
0.369415,-38,146,-2071,5,23,-22,16310.839,1104.549,-115.944,-1076.329
0.389404,-55,149,-2095,6,23,-25,16310.457,1106.808,-115.840,-1079.811
0.409393,-61,160,-2120,4,22,-22,16310.061,1109.181,-115.880,-1083.344
0.429413,-55,149,-2083,3,23,-22,16309.662,1111.628,-115.955,-1086.831,111,-653,76
0.449402,-34,165,-2110,6,23,-22,16309.260,1114.059,-115.738,-1090.389
0.469391,-69,158,-2094,5,23,-23,16308.843,1116.501,-115.677,-1094.126
0.489410,-61,149,-2122,6,24,-24,16308.438,1118.967,-115.641,-1097.645
0.509399,-52,145,-2093,4,23,-21,16308.020,1121.567,-115.509,-1101.208
0.529388,-71,140,-2124,6,24,-22,16307.599,1124.096,-115.534,-1104.863,97,-641,67,34232
0.549378,-35,154,-2087,4,22,-22,16307.172,1126.645,-115.257,-1108.590
0.569397,-39,172,-2097,6,22,-23,16306.776,1128.884,-114.985,-1112.150
0.589386,-43,167,-2112,5,22,-24,16306.377,1131.183,-114.958,-1115.667
0.609467,-58,150,-2113,5,22,-23,16305.970,1133.451,-114.881,-1119.317
0.629395,-50,158,-2108,3,22,-24,16305.545,1135.800,-115.032,-1123.110,108,-636,67
0.649384,-33,151,-2085,4,24,-24,16305.136,1138.079,-114.906,-1126.744
0.669403,-50,154,-2091,8,23,-23,16304.728,1140.403,-114.592,-1130.331
0.689392,-56,170,-2095,7,22,-21,16304.307,1142.945,-114.439,-1133.842
0.709381,-27,153,-2089,6,24,-21,16303.857,1145.650,-114.509,-1137.573
0.729401,-83,128,-2105,5,24,-23,16303.422,1148.178,-114.348,-1141.258,107,-644,48
0.749390,-39,159,-2083,6,24,-25,16302.988,1150.563,-114.391,-1145.045
0.769379,-57,163,-2105,4,22,-24,16302.602,1152.701,-114.402,-1148.390
0.789398,-57,157,-2096,5,22,-23,16302.186,1155.073,-114.169,-1151.931
0.809387,-63,154,-2110,6,23,-22,16301.778,1157.313,-114.199,-1155.448
0.829376,-54,137,-2110,4,22,-23,16301.356,1159.531,-114.115,-1159.181,106,-662,46
0.849396,-44,134,-2109,7,22,-23,16300.932,1161.919,-114.054,-1162.752
0.869385,-49,134,-2099,4,24,-24,16300.507,1164.379,-113.840,-1166.260
0.889404,-58,135,-2107,6,24,-21,16300.100,1166.677,-113.809,-1169.649
0.909393,-62,147,-2103,6,23,-22,16299.674,1168.931,-113.705,-1173.340
0.929382,-47,154,-2107,6,22,-22,16299.261,1171.132,-113.571,-1176.897,98,-666,43
0.949371,-57,145,-2107,5,22,-22,16298.852,1173.336,-113.557,-1180.365
0.969391,-43,144,-2087,5,23,-22,16298.432,1175.589,-113.436,-1183.920
0.989380,-47,143,-2112,6,22,-24,16298.013,1177.817,-113.096,-1187.509
1.009399,-51,144,-2085,7,23,-24,16297.579,1180.096,-113.016,-1191.203
1.029388,-46,148,-2088,5,22,-26,16297.146,1182.342,-113.017,-1194.891,104,-660,46,34267
1.049378,-46,138,-2088,6,24,-24,16296.700,1184.832,-113.013,-1198.499
1.069367,-61,161,-2080,6,23,-23,16296.258,1187.155,-112.887,-1202.226
1.089386,-81,165,-2101,5,24,-24,16295.796,1189.574,-112.910,-1206.083
1.109375,-45,161,-2084,5,23,-22,16295.370,1191.833,-112.939,-1209.602
1.129364,-59,144,-2098,4,23,-21,16294.923,1194.163,-112.909,-1213.327,105,-668,52
1.149384,-58,155,-2109,4,23,-23,16294.499,1196.356,-112.790,-1216.867
1.169373,-70,158,-2090,6,22,-23,16294.071,1198.593,-112.771,-1220.381
1.189392,-50,145,-2096,4,23,-23,16293.647,1200.811,-112.579,-1223.883
1.209381,-55,149,-2090,7,22,-24,16293.205,1203.053,-112.497,-1227.568
1.229370,-49,141,-2105,6,24,-21,16292.761,1205.353,-112.378,-1231.206,105,-659,50
1.249359,-55,167,-2095,4,25,-24,16292.322,1207.682,-112.404,-1234.722
1.269379,-47,148,-2086,4,23,-20,16291.892,1209.840,-112.489,-1238.278
1.289398,-49,140,-2107,5,23,-22,16291.463,1212.104,-112.411,-1241.702
1.309387,-49,148,-2108,4,23,-22,16291.030,1214.337,-112.370,-1245.210
1.329407,-54,154,-2123,4,23,-23,16290.593,1216.457,-112.313,-1248.855,99,-657,46
1.349365,-29,150,-2095,4,23,-23,16290.150,1218.713,-112.086,-1252.443
1.369385,-36,161,-2134,5,24,-23,16289.712,1221.077,-111.938,-1255.852
1.389374,-53,161,-2103,6,24,-21,16289.279,1223.257,-112.084,-1259.328
1.409393,-63,151,-2119,6,23,-22,16288.857,1225.418,-111.932,-1262.694
1.429382,-49,148,-2109,5,23,-23,16288.403,1227.467,-111.917,-1266.556,91,-661,48
1.449371,-56,140,-2110,4,22,-24,16287.968,1229.630,-111.849,-1270.058
1.469360,-45,141,-2110,6,22,-22,16287.540,1231.654,-111.891,-1273.577
1.489380,-55,141,-2123,4,22,-22,16287.093,1233.858,-111.927,-1277.146
1.509369,-59,157,-2106,4,23,-23,16286.627,1236.065,-111.891,-1280.959
1.529388,-58,155,-2098,4,23,-24,16286.191,1238.273,-111.774,-1284.371,97,-662,40,34273
1.549378,-70,150,-2091,6,22,-21,16285.757,1240.497,-111.640,-1287.740
1.569367,-43,141,-2089,6,23,-22,16285.306,1242.489,-111.656,-1291.512
1.589356,-46,138,-2120,5,22,-24,16284.868,1244.536,-111.536,-1295.066
1.609375,-51,167,-2099,5,22,-24,16284.424,1246.628,-111.382,-1298.651
1.629364,-61,149,-2120,5,24,-24,16283.972,1248.872,-111.094,-1302.184,98,-656,50
1.649353,-42,155,-2086,7,23,-24,16283.533,1250.988,-111.008,-1305.641
1.669373,-60,150,-2086,6,23,-24,16283.100,1252.941,-110.847,-1309.177
1.689362,-53,152,-2132,6,22,-21,16282.647,1254.959,-110.732,-1312.888
1.709381,-59,173,-2139,7,22,-22,16282.198,1257.061,-110.756,-1316.436
1.729370,-52,143,-2098,5,23,-22,16281.746,1259.221,-110.668,-1319.965,95,-661,41
1.749390,6,167,-2114,7,22,-23,16281.283,1261.308,-110.564,-1323.688
1.769379,-63,160,-2116,6,23,-24,16280.824,1263.529,-110.386,-1327.217
1.789368,-53,137,-2098,5,23,-23,16280.363,1265.841,-110.434,-1330.669
1.809357,-47,163,-2135,3,24,-21,16279.913,1267.801,-110.369,-1334.302
1.829437,-51,138,-2094,7,23,-24,16279.446,1269.863,-110.176,-1338.047,98,-663,48
1.849365,-76,157,-2083,5,24,-24,16278.989,1272.095,-110.037,-1341.499
1.869354,-60,126,-2106,7,22,-23,16278.532,1274.237,-110.065,-1345.002
1.889374,-48,146,-2115,5,22,-24,16278.052,1276.396,-110.063,-1348.765
1.909363,-40,137,-2087,6,22,-25,16277.578,1278.366,-109.945,-1352.616
1.929352,-51,142,-2103,6,22,-25,16277.115,1280.447,-109.956,-1356.219,95,-659,50
1.949371,-58,144,-2126,3,23,-22,16276.661,1282.505,-109.897,-1359.721
1.969360,-51,149,-2077,6,23,-23,16276.193,1284.606,-109.785,-1363.342
1.989380,-52,152,-2128,4,23,-24,16275.724,1286.671,-109.514,-1367.011
2.009338,-53,153,-2108,7,24,-23,16275.261,1288.708,-109.504,-1370.608
2.029358,-56,142,-2075,4,22,-23,16274.795,1290.705,-109.604,-1374.246,101,-650,90,34279
2.049347,-44,138,-2094,4,23,-21,16274.341,1292.737,-109.397,-1377.731
2.069367,-52,145,-2101,5,22,-23,16273.873,1295.031,-109.269,-1381.100
2.089356,-64,153,-2091,6,24,-22,16273.415,1297.063,-109.130,-1384.600
2.109345,-76,145,-2083,5,20,-22,16272.956,1299.131,-109.093,-1388.054
2.129364,-54,165,-2101,5,23,-24,16272.489,1301.253,-109.011,-1391.542,99,-646,97
2.149353,-57,140,-2110,7,22,-21,16272.023,1303.315,-108.916,-1395.066
2.169342,-62,150,-2089,5,24,-26,16271.542,1305.457,-108.729,-1398.684
2.189362,-49,144,-2114,5,23,-23,16271.068,1307.312,-108.773,-1402.454
2.209351,-54,162,-2083,4,23,-23,16270.583,1309.303,-108.789,-1406.219
2.229370,-55,153,-2085,5,23,-24,16270.103,1311.585,-108.930,-1409.636,87,-653,104
2.249359,-54,157,-2103,4,25,-23,16269.599,1313.855,-108.837,-1413.338
2.269348,-64,150,-2116,7,24,-25,16269.118,1315.782,-108.796,-1417.085
2.289368,-64,151,-2133,3,22,-25,16268.639,1317.798,-108.779,-1420.709
2.309357,-68,131,-2087,5,22,-22,16268.203,1319.571,-108.648,-1424.062
2.329346,-60,159,-2119,5,22,-21,16267.740,1321.572,-108.749,-1427.481,105,-680,105
2.349365,-70,161,-2093,3,24,-22,16267.272,1323.485,-108.855,-1431.021
2.369354,-56,131,-2109,4,23,-22,16266.801,1325.590,-108.860,-1434.427
2.389343,-44,147,-2120,6,24,-19,16266.317,1327.671,-108.704,-1438.003
2.409332,-58,168,-2116,7,24,-22,16265.825,1329.768,-108.650,-1441.621
2.429352,-43,135,-2107,5,24,-21,16265.312,1331.735,-108.755,-1445.591,133,-746,80
2.449341,-50,148,-2090,4,24,-23,16264.831,1333.459,-108.821,-1449.399
2.469360,-57,152,-2086,5,22,-24,16264.356,1335.396,-108.815,-1452.940
2.489349,-48,155,-2117,5,23,-23,16263.911,1337.296,-108.760,-1456.169
2.509338,-56,169,-2104,4,23,-22,16263.446,1339.352,-108.720,-1459.477
2.529358,-52,155,-2115,6,22,-21,16262.930,1341.509,-108.868,-1463.234,165,-795,60,34269
2.549347,-38,136,-2098,4,24,-24,16262.453,1343.300,-109.012,-1466.876
2.569336,-55,149,-2084,3,20,-24,16261.965,1345.278,-109.069,-1470.461
2.589356,-55,156,-2069,4,23,-23,16261.491,1347.226,-109.076,-1473.914
2.609345,-48,147,-2097,5,23,-20,16261.000,1349.117,-109.199,-1477.586
2.629364,-50,159,-2106,5,22,-24,16260.508,1351.030,-109.281,-1481.247,179,-809,42
2.649353,8,223,-2180,6,22,-23,16260.023,1352.857,-109.092,-1484.916
2.669342,-103,162,-2113,4,25,-23,16259.534,1354.665,-109.163,-1488.613
2.689362,-54,151,-2095,4,23,-24,16259.048,1356.704,-109.123,-1492.054
2.709351,-60,153,-2085,6,23,-22,16258.555,1358.524,-109.205,-1495.764
2.729340,-66,160,-2086,4,22,-23,16258.065,1360.280,-109.277,-1499.482,190,-822,15
2.749329,-62,155,-2074,3,22,-24,16257.576,1362.164,-109.426,-1503.064
2.769348,-58,159,-2085,3,23,-21,16257.081,1364.247,-109.293,-1506.533
2.789337,-55,147,-2089,7,22,-23,16256.596,1366.027,-109.297,-1510.148
2.809326,-40,146,-2103,7,22,-21,16256.099,1367.937,-109.267,-1513.766
2.829346,-50,146,-2101,5,22,-24,16255.577,1370.006,-109.172,-1517.504,181,-832,11
2.849335,-62,158,-2079,6,25,-24,16255.084,1372.021,-109.219,-1520.958
2.869324,-65,138,-2109,5,23,-24,16254.595,1373.852,-109.218,-1524.529
2.889343,-51,130,-2091,4,22,-22,16254.080,1375.840,-109.052,-1528.229
2.909363,-50,156,-2128,5,23,-24,16253.564,1377.836,-108.865,-1531.931
2.929321,-45,149,-2096,5,23,-23,16253.068,1379.787,-109.031,-1535.424,170,-836,14
2.949341,-52,165,-2089,2,23,-21,16252.575,1381.853,-108.992,-1538.776
2.969330,-62,161,-2059,6,23,-22,16252.073,1383.886,-109.023,-1542.251
2.989349,-55,140,-2142,6,23,-22,16251.600,1385.640,-109.094,-1545.650
3.009338,-57,160,-2093,5,22,-24,16251.105,1387.530,-109.210,-1549.147
3.029327,-72,130,-2083,4,22,-23,16250.605,1389.387,-109.284,-1552.717,172,-826,7,34269
3.049408,-46,136,-2109,5,20,-22,16250.128,1391.336,-109.133,-1555.977
3.069336,-50,141,-2104,7,24,-20,16249.632,1393.061,-108.830,-1559.628
3.089325,-51,136,-2112,6,22,-23,16249.118,1394.798,-108.871,-1563.423
3.109345,-53,145,-2099,5,22,-24,16248.601,1396.829,-108.739,-1566.982
3.129334,-50,142,-2085,5,22,-23,16248.114,1398.482,-108.758,-1570.556,181,-827,6
3.149323,-63,143,-2098,6,22,-23,16247.612,1400.314,-108.726,-1574.120
3.169312,-47,134,-2087,6,22,-24,16247.086,1402.264,-108.537,-1577.819
3.189331,-73,155,-2107,4,24,-23,16246.573,1404.124,-108.562,-1581.443
3.209320,-46,135,-2091,5,22,-23,16246.059,1406.047,-108.485,-1585.010
3.229340,-57,146,-2096,4,23,-21,16245.557,1407.755,-108.504,-1588.634,184,-824,21
3.249329,-58,148,-2115,4,22,-21,16245.050,1409.485,-108.457,-1592.291
3.269348,-62,158,-2112,5,22,-23,16244.547,1411.193,-108.402,-1595.906
3.289337,-52,157,-2095,6,22,-24,16244.015,1413.101,-108.618,-1599.614
3.309326,-48,138,-2101,5,23,-22,16243.489,1415.116,-108.605,-1603.167
3.329346,-61,136,-2100,5,24,-24,16242.976,1416.911,-108.576,-1606.779,179,-824,19
3.349304,-53,146,-2084,5,24,-22,16242.467,1418.737,-108.640,-1610.305
3.369324,-73,151,-2119,7,23,-24,16241.953,1420.518,-108.609,-1613.917
3.389313,-54,148,-2078,5,22,-24,16241.433,1422.284,-108.702,-1617.583
3.409332,-47,140,-2087,5,23,-22,16240.946,1424.021,-108.532,-1620.954
3.429321,-46,149,-2091,5,24,-21,16240.428,1425.893,-108.409,-1624.508,181,-825,15
3.449310,-72,160,-2100,5,24,-21,16239.950,1427.553,-108.194,-1627.832
3.469330,-56,142,-2095,7,22,-22,16239.398,1429.460,-108.255,-1631.657
3.489319,-46,147,-2088,6,25,-25,16238.897,1431.227,-108.249,-1635.094
3.509338,-55,154,-2123,4,22,-22,16238.395,1432.929,-108.007,-1638.599
3.529297,-57,123,-2113,6,22,-23,16237.873,1434.788,-107.775,-1642.154,178,-830,11,34314
3.549347,-62,155,-2105,4,23,-24,16237.346,1436.709,-107.852,-1645.685
3.569305,-68,165,-2088,5,22,-22,16236.847,1438.488,-107.668,-1649.056
3.589325,-62,146,-2114,5,24,-23,16236.307,1440.513,-107.915,-1652.586
3.609314,-50,141,-2116,4,25,-24,16235.771,1442.395,-108.059,-1656.203
3.629334,-43,142,-2086,4,24,-21,16235.230,1444.430,-108.135,-1659.725,175,-817,17
3.649323,-48,155,-2085,6,25,-23,16234.719,1446.178,-108.100,-1663.199
3.669312,-52,157,-2106,4,23,-23,16234.195,1447.977,-108.304,-1666.732
3.689301,-58,146,-2095,5,23,-23,16233.681,1449.660,-108.405,-1670.259
3.709320,-68,166,-2104,4,23,-24,16233.150,1451.379,-108.545,-1673.918
3.729309,-47,154,-2083,3,22,-24,16232.618,1453.095,-108.714,-1677.574,151,-807,90
3.749329,-56,152,-2114,5,24,-23,16232.083,1454.956,-108.743,-1681.134
3.769318,-44,167,-2104,5,24,-22,16231.559,1456.646,-108.723,-1684.725
3.789307,-59,142,-2104,5,22,-22,16231.022,1458.242,-108.887,-1688.501
3.809296,-29,145,-2099,6,22,-25,16230.483,1460.090,-108.970,-1692.072
3.829315,-54,160,-2098,4,25,-22,16229.982,1461.484,-108.956,-1695.677,126,-822,126
3.849304,-53,156,-2128,5,20,-25,16229.467,1463.155,-109.001,-1699.156
3.869324,-55,155,-2106,4,22,-23,16228.924,1464.862,-109.107,-1702.859
3.889313,-52,138,-2125,3,22,-21,16228.389,1466.541,-109.182,-1706.507
3.909302,-54,159,-2107,6,24,-23,16227.848,1468.229,-109.157,-1710.198
3.929291,-45,169,-2120,7,22,-24,16227.340,1469.912,-109.384,-1713.555,150,-977,162
3.949310,-45,163,-2112,5,22,-21,16226.818,1471.549,-109.501,-1717.077
3.969330,-59,150,-2096,5,22,-22,16226.267,1473.234,-109.500,-1720.843
3.989319,-34,150,-2093,6,23,-22,16225.731,1474.996,-109.368,-1724.384
4.009308,-81,147,-2071,6,23,-23,16225.234,1476.681,-109.335,-1727.623
4.029297,-59,157,-2091,6,22,-21,16224.711,1478.437,-109.219,-1731.032,191,-1218,161,34285
4.049316,-44,157,-2113,5,23,-21,16224.175,1480.201,-109.281,-1734.543
4.069305,-54,152,-2096,4,23,-22,16223.653,1481.745,-109.329,-1738.097
4.089325,-44,151,-2127,6,22,-24,16223.136,1483.338,-109.336,-1741.562
4.109284,-54,144,-2096,7,22,-22,16222.599,1484.988,-109.213,-1745.167
4.129303,-57,165,-2106,6,23,-24,16222.074,1486.660,-109.095,-1748.627,246,-1365,157
4.149323,-53,149,-2147,4,22,-24,16221.520,1488.541,-109.016,-1752.169
4.169312,-66,149,-2104,6,22,-24,16220.991,1490.079,-108.855,-1755.761
4.189301,-46,147,-2098,6,22,-22,16220.453,1491.645,-108.823,-1759.399
4.209290,-63,145,-2110,5,22,-24,16219.879,1493.544,-108.876,-1763.072
4.229309,-61,158,-2087,6,24,-23,16219.374,1495.050,-108.869,-1766.443,300,-1501,152
4.249298,-48,144,-2106,4,20,-22,16218.848,1496.654,-108.888,-1769.913
4.269379,-49,151,-2090,6,23,-22,16218.329,1498.266,-108.932,-1773.295
4.289307,44,174,-1999,5,22,-20,16217.808,1499.545,-109.018,-1776.965
4.309296,-69,133,-2106,6,23,-23,16217.281,1500.967,-109.073,-1780.569
4.329315,-45,154,-2080,5,22,-22,16216.746,1502.657,-108.894,-1784.025,330,-1637,59
4.349304,-51,160,-2091,6,25,-22,16216.206,1504.279,-108.812,-1787.565
4.369293,-70,152,-2097,5,22,-21,16215.632,1506.011,-108.717,-1791.321
4.389313,-45,150,-2095,6,26,-24,16215.106,1507.492,-108.759,-1794.831
4.409302,-51,145,-2084,5,22,-22,16214.585,1509.067,-108.816,-1798.210
4.429291,-62,147,-2086,6,22,-22,16214.039,1510.557,-108.959,-1801.870,327,-1632,-58
4.449310,-54,155,-2076,5,22,-23,16213.499,1512.162,-108.941,-1805.376
4.469299,-60,147,-2083,5,22,-21,16212.927,1513.882,-109.051,-1809.058
4.489288,-62,141,-2089,5,23,-24,16212.366,1515.632,-109.083,-1812.619
4.509308,-62,162,-2091,6,23,-24,16211.789,1517.257,-109.370,-1816.402
4.529297,-56,149,-2093,4,22,-23,16211.253,1518.727,-109.403,-1819.945,330,-1649,-56,34314
4.549286,-50,151,-2099,6,22,-23,16210.689,1520.406,-109.343,-1823.574
4.569305,-44,143,-2090,6,24,-23,16210.155,1522.023,-109.453,-1826.955
4.589294,-26,161,-2096,5,23,-23,16209.631,1523.342,-109.741,-1830.488
4.609284,-46,147,-2100,3,20,-21,16209.123,1524.897,-109.713,-1833.687
4.629303,-60,154,-2090,6,22,-19,16208.593,1526.365,-109.712,-1837.146,325,-1647,-56
4.649292,-58,148,-2098,5,22,-23,16208.030,1527.934,-109.642,-1840.810
4.669281,-75,154,-2096,5,23,-24,16207.462,1529.569,-109.641,-1844.450
4.689270,-68,158,-2097,6,24,-23,16206.916,1531.250,-109.580,-1847.856
4.709290,-54,163,-2110,5,24,-22,16206.357,1532.853,-109.443,-1851.432
4.729279,-48,168,-2077,6,24,-23,16205.808,1534.533,-109.476,-1854.846,332,-1647,-58
4.749298,-53,156,-2117,6,23,-22,16205.278,1535.922,-109.559,-1858.314
4.769287,-66,162,-2085,4,22,-22,16204.694,1537.636,-109.574,-1861.986
4.789276,-57,140,-2108,7,23,-24,16204.126,1539.190,-109.755,-1865.632
4.809296,-46,157,-2085,5,24,-24,16203.539,1540.756,-109.661,-1869.441
4.829285,-65,162,-2112,6,23,-25,16202.974,1542.205,-109.797,-1873.133,331,-1645,-50
4.849274,-63,162,-2089,4,22,-22,16202.435,1543.737,-109.981,-1876.521
4.869293,-64,144,-2103,5,23,-21,16201.884,1545.222,-109.937,-1880.052
4.889282,-53,161,-2104,6,22,-22,16201.327,1546.859,-109.891,-1883.506
4.909271,-45,157,-2066,6,23,-23,16200.801,1548.414,-109.946,-1886.744
4.929291,-47,152,-2104,6,23,-20,16200.240,1549.955,-109.989,-1890.292,326,-1645,-57
4.949280,-55,148,-2098,4,22,-23,16199.682,1551.436,-110.063,-1893.853
4.969299,-51,149,-2110,4,24,-25,16199.121,1553.145,-110.251,-1897.232
4.989288,-54,160,-2087,6,24,-22,16198.564,1554.484,-110.462,-1900.880
5.009277,-64,149,-2069,3,22,-24,16197.975,1556.146,-110.405,-1904.540
5.029297,-60,150,-2093,7,23,-22,16197.413,1557.753,-110.484,-1907.998,325,-1639,-53,34353
5.049286,-72,140,-2125,6,22,-22,16196.862,1559.283,-110.292,-1911.430
5.069275,-62,150,-2112,6,22,-24,16196.315,1560.774,-110.357,-1914.845
5.089264,-56,129,-2088,6,23,-20,16195.723,1562.445,-110.419,-1918.484
5.109284,-57,154,-2124,4,23,-23,16195.177,1563.914,-110.303,-1921.899
5.129273,-45,168,-2090,6,23,-23,16194.631,1565.435,-110.259,-1925.257,318,-1639,-42
5.149262,-36,143,-2101,6,23,-20,16194.057,1567.007,-110.378,-1928.796
5.169281,-60,161,-2101,5,22,-23,16193.488,1568.290,-110.589,-1932.521
5.189270,-47,171,-2097,5,22,-24,16192.919,1569.896,-110.629,-1935.973
5.209320,-59,162,-2079,6,24,-21,16192.383,1571.247,-110.847,-1939.346
5.229279,-59,158,-2076,5,22,-21,16191.832,1572.613,-110.834,-1942.836,285,-1535,98
5.249268,-54,147,-2113,6,22,-23,16191.262,1574.037,-110.651,-1946.445
5.269287,-52,155,-2119,7,23,-23,16190.696,1575.486,-110.649,-1949.977
5.289276,-65,149,-2119,5,24,-22,16190.125,1577.004,-110.819,-1953.474
5.309296,-60,150,-2110,4,24,-22,16189.530,1578.702,-111.011,-1957.020
5.329254,-33,119,-2113,5,22,-23,16188.971,1580.189,-111.047,-1960.436,267,-1520,152
5.349274,-58,140,-2101,4,23,-23,16188.427,1581.535,-110.987,-1963.844
5.369263,-64,144,-2100,5,22,-22,16187.881,1583.202,-111.057,-1967.002
5.389282,-58,146,-2070,5,22,-21,16187.309,1584.588,-111.093,-1970.588
5.409271,-52,147,-2099,5,22,-23,16186.721,1586.107,-111.195,-1974.184
5.429291,-50,162,-2128,4,23,-23,16186.139,1587.526,-111.411,-1977.795
5.449280,-52,150,-2096,3,23,-23,16185.531,1588.827,-111.433,-1981.724,218,-1649,238
5.469299,-66,159,-2109,6,22,-25,16184.951,1590.113,-111.415,-1985.425
5.489319,-48,151,-2107,5,22,-24,16184.367,1591.477,-111.489,-1989.092
5.509338,-52,141,-2105,5,22,-24,16183.775,1592.899,-111.535,-1992.762
5.529266,-68,147,-2132,8,23,-23,16183.171,1594.484,-111.585,-1996.389,218,-1649,238,34325
5.549286,-46,144,-2132,6,23,-24,16182.595,1595.961,-111.620,-1999.880,-4,-1962,270
5.569275,-59,137,-2098,4,23,-24,16182.042,1597.459,-111.561,-2003.159
5.589264,-47,161,-2090,5,23,-20,16181.445,1598.962,-111.527,-2006.776
5.609284,-51,152,-2104,4,24,-23,16180.850,1600.384,-111.588,-2010.435
5.629273,-56,151,-2091,5,23,-26,16180.214,1602.082,-111.476,-2014.206
5.649262,-40,165,-2079,6,24,-26,16179.637,1603.479,-111.707,-2017.711,-348,-2170,239
5.669281,-52,162,-2125,6,23,-22,16179.105,1604.716,-111.749,-2020.987
5.689270,-54,153,-2128,6,22,-20,16178.527,1606.205,-111.779,-2024.427
5.709290,-57,144,-2097,6,24,-21,16177.972,1607.613,-111.711,-2027.749
5.729279,-58,157,-2096,6,23,-21,16177.404,1609.066,-111.766,-2031.117
5.749268,-69,147,-2067,5,24,-21,16176.837,1610.424,-111.757,-2034.561,-558,-2307,211
5.769257,-58,132,-2114,5,22,-23,16176.241,1611.755,-111.593,-2038.249
5.789246,-64,143,-2100,6,23,-26,16175.649,1613.203,-111.712,-2041.791
5.809265,-59,178,-2104,4,23,-22,16175.096,1614.493,-111.729,-2045.153
5.829376,-60,150,-2107,6,23,-21,16174.516,1615.613,-112.020,-2048.829
5.849274,-89,135,-2097,5,20,-23,16173.923,1616.946,-112.650,-2052.423,-571,-2750,189
5.869263,-78,156,-2091,8,24,-20,16173.339,1618.588,-112.353,-2055.748
5.889252,-51,162,-2109,7,23,-23,16172.705,1620.518,-111.668,-2059.249
5.909271,-61,156,-2081,11,25,-22,16172.104,1622.144,-111.286,-2062.703
5.929260,-65,138,-2089,7,24,-24,16171.516,1623.652,-110.928,-2066.144
5.949249,-66,165,-2100,5,23,-21,16170.901,1625.192,-110.794,-2069.752,-617,-2974,-93
5.969269,-49,155,-2101,8,22,-24,16170.316,1626.682,-110.575,-2073.164
5.989258,-54,151,-2114,8,24,-22,16169.690,1628.263,-110.133,-2076.819
6.009247,-59,135,-2106,9,23,-24,16169.065,1630.273,-109.361,-2080.148
6.029266,-58,141,-2138,15,29,-21,16168.438,1631.931,-109.065,-2083.739,-617,-2974,-93,34304
6.049255,-58,147,-2081,7,23,-25,16167.803,1633.541,-108.748,-2087.416,-655,-3193,-267
6.069244,-62,154,-2093,8,24,-24,16167.165,1635.064,-108.778,-2091.160
6.089264,-60,160,-2100,5,22,-26,16166.535,1636.694,-108.689,-2094.755
6.109253,-48,157,-2118,6,24,-23,16165.927,1638.012,-108.738,-2098.412
6.129242,-45,144,-2100,7,22,-23,16165.344,1639.470,-108.747,-2101.759
6.149231,-48,172,-2090,7,24,-23,16164.729,1641.010,-108.499,-2105.301,-657,-3197,-260
6.169251,-54,146,-2103,7,24,-23,16164.083,1642.745,-108.207,-2108.916
6.189240,-49,132,-2098,9,25,-23,16163.433,1644.496,-107.685,-2112.561
6.209229,-56,151,-2104,7,25,-23,16162.858,1645.963,-107.548,-2115.819
6.229248,-43,142,-2098,6,24,-20,16162.218,1647.497,-107.466,-2119.515
6.249237,-70,151,-2112,7,24,-26,16161.566,1649.342,-106.973,-2123.073,-666,-3206,-248
6.269257,-39,151,-2087,8,29,-22,16160.853,1651.948,-106.301,-2126.508
6.289246,-57,156,-2112,11,29,-23,16160.189,1653.918,-105.961,-2130.036
6.309235,-63,145,-2098,7,23,-23,16159.589,1655.421,-105.940,-2133.420
6.329224,-50,178,-2104,6,25,-22,16159.009,1656.733,-105.764,-2136.799
6.349243,-47,153,-2117,7,23,-22,16158.390,1658.162,-105.879,-2140.365,-673,-3208,-254
6.369263,-61,140,-2113,5,24,-23,16157.795,1659.442,-105.946,-2143.857
6.389252,-55,140,-2103,5,22,-21,16157.161,1660.884,-105.970,-2147.517
; 6 stopping logging: shutdown: switched off
