;Title, http://www.gcdataconcepts.com, HAM-IMU, MPU-9250
;Version, 1191, Build date, Nov 15 2016,  SN:CCDC30163044EA8
;Start_time, 2007-01-01, 08:12:41.679
;Temperature, -999.00, deg C,  Vbat, 4096, mv
;MPU SR, 200,Hz,  Accel sens, 2048,counts/g, Gyro sens, 16,counts/dps,  Mag SR, 10,Hz,  Mag sens, 1666,counts/mT
;Deadband, 0, counts
;DeadbandTimeout, 5,sec
;Time, Ax, Ay, Az, Gx, Gy, Gz, Qw, Qx, Qy, Qz, Mx, My, Mz, T
0.001587,296,1847,684,934,-176,-558,-167.165,13931.919,-1040.776,8557.215
0.001922,251,1907,600,844,-140,-499,-99.236,13860.028,-985.057,8680.718
0.021179,234,1928,588,813,-106,-440,-38.240,13787.691,-932.089,8801.407,293,-80,141,40236
0.041198,265,1901,520,806,-87,-419,20.207,13714.588,-879.018,8920.338
0.061187,312,1981,514,800,-82,-420,77.934,13640.225,-828.458,9038.102
0.081207,286,2014,440,803,-92,-394,134.186,13565.795,-783.982,9152.705
0.101227,249,2054,428,766,-109,-368,192.794,13495.355,-742.096,9258.669
0.121216,254,2101,382,706,-130,-374,256.451,13431.042,-702.295,9353.264,278,-67,91
0.141205,246,2115,331,629,-170,-380,325.678,13373.609,-668.265,9435.538
0.161224,212,2145,341,543,-225,-370,400.809,13323.730,-643.752,9504.661
0.181213,162,2147,319,460,-283,-338,478.230,13281.886,-628.671,9560.491
0.201233,90,2117,288,366,-319,-307,558.419,13248.584,-618.694,9602.907
0.221222,53,2075,299,278,-347,-309,642.275,13222.786,-611.083,9633.661,255,-64,51
0.241211,46,2056,292,204,-370,-311,727.279,13203.422,-606.650,9654.435
0.261230,-46,2054,311,145,-382,-291,806.573,13188.308,-606.789,9668.776
0.281219,-84,1990,306,109,-356,-250,875.570,13174.955,-607.484,9680.927
0.301239,-95,1971,281,96,-298,-214,933.791,13161.613,-603.421,9693.880
0.322204,-68,2027,292,107,-227,-205,981.992,13147.184,-593.568,9709.292,236,-64,19
0.341247,-1334,1758,-659,123,-168,-200,987.699,13148.414,-563.913,9708.815
0.361236,-494,2036,314,-209,546,9,952.563,13149.868,-585.090,9709.103
0.381256,-118,2043,420,-3,382,291,913.178,13153.011,-594.244,9708.075
0.401245,-101,2040,379,-44,78,103,898.072,13159.321,-593.404,9700.982
0.421234,26,2018,320,-65,88,1,892.502,13168.604,-569.088,9690.349,220,-66,-2
0.441253,87,2046,401,-85,129,-147,881.810,13177.485,-534.787,9681.206
0.461242,44,2118,427,-67,171,-113,869.347,13186.159,-507.782,9671.971
0.481262,-24,2116,442,-86,122,-88,861.868,13197.861,-487.856,9657.695
0.501251,-38,2086,450,-127,94,-77,853.692,13213.185,-468.382,9638.413
0.521271,-33,2016,476,-154,111,-75,842.537,13229.613,-445.944,9617.902,218,-60,-10,40232
0.541260,-17,1941,408,-153,133,-78,828.339,13243.971,-422.110,9600.435
0.561279,-31,1946,403,-116,151,-71,810.097,13252.401,-399.019,9591.341
0.581268,-15,1986,433,-54,166,-47,787.515,13253.788,-376.076,9592.233
0.601288,-27,2016,384,17,190,-32,760.710,13250.302,-351.297,9600.149
0.621277,-12,2059,413,55,218,-23,728.876,13245.260,-324.520,9610.513,221,-55,-1
0.641296,-7,2083,446,55,247,-17,693.695,13242.202,-295.896,9618.251
0.661285,-15,2072,428,27,265,-19,656.936,13242.195,-264.964,9621.742
0.681366,2,2038,407,-5,281,-28,618.786,13245.457,-230.676,9620.665
0.701294,-6,2000,402,-33,301,-40,576.897,13250.685,-193.113,9616.895
0.721283,-28,1985,416,-43,331,-37,530.265,13255.606,-153.095,9613.517,223,-53,2
0.741272,-47,1972,422,-34,362,-34,478.486,13258.875,-109.080,9612.326
0.761291,-45,1993,411,-10,407,-35,419.434,13259.052,-57.407,9615.288
0.781280,-37,2016,414,20,472,-46,352.168,13256.727,2.315,9621.361
0.801300,4,2028,432,35,537,-56,279.088,13253.506,69.825,9627.940
0.821289,70,2044,471,37,577,-76,205.554,13252.006,139.678,9631.095,220,-64,-6
0.841308,54,2045,467,4,568,-82,135.709,13253.961,206.536,9628.441
0.861297,65,1991,446,-33,535,-81,70.917,13258.203,270.109,9621.720
0.881317,106,2004,476,-52,502,-84,10.157,13262.363,330.333,9614.362
0.901306,62,2010,445,-47,469,-74,-48.260,13265.273,384.378,9608.220
0.921295,33,1998,488,-35,439,-53,-105.783,13267.205,433.311,9603.007,221,-58,4
0.941314,40,2012,467,-32,427,-33,-163.642,13268.886,480.249,9597.639
0.961334,6,2005,471,-33,427,-27,-222.463,13269.730,528.144,9592.772
0.981323,-11,1992,488,-20,439,-31,-284.802,13268.652,578.806,9589.691
1.001312,11,1989,457,-7,473,-27,-353.848,13265.086,633.539,9588.865
1.021332,14,1976,447,17,524,-22,-432.287,13258.196,693.221,9591.050,224,-71,5,40206
1.041321,-5,2010,454,44,590,-12,-523.023,13248.104,757.085,9595.648
1.061340,-35,1992,412,62,663,9,-626.289,13235.925,829.273,9600.301
1.081329,-60,1999,440,68,759,6,-744.009,13221.315,914.184,9604.321
1.101318,-82,1987,402,75,880,-3,-881.169,13203.389,1014.723,9607.280
1.121338,-68,1968,342,88,1037,-5,-1040.935,13179.650,1131.328,9610.869,221,-65,18
1.141357,-3,1999,329,117,1196,-8,-1222.890,13150.359,1261.685,9613.334
1.161346,53,2004,332,121,1339,14,-1422.153,13116.467,1401.414,9612.869
1.181335,93,2050,383,132,1429,15,-1632.914,13078.209,1548.149,9608.991
1.201355,81,2030,303,124,1499,25,-1854.553,13038.045,1698.241,9597.990
1.221344,157,2030,287,106,1581,53,-2087.904,12992.260,1856.134,9582.903,213,-64,21
1.241363,78,2010,271,113,1660,45,-2328.068,12941.467,2019.146,9563.316
1.261352,186,2042,303,102,1698,44,-2570.136,12888.150,2183.193,9537.248
1.281341,230,1993,217,64,1698,70,-2818.148,12831.329,2349.816,9504.148
1.301361,314,2037,207,77,1756,53,-3068.879,12766.699,2520.986,9469.607
1.321350,408,2117,257,80,1782,44,-3312.998,12701.009,2686.240,9430.163,205,-61,28
1.341369,453,2086,229,50,1704,56,-3540.904,12641.862,2834.743,9383.229
1.361389,367,2012,216,-2,1556,92,-3746.485,12590.885,2967.403,9330.777
1.381378,329,1992,230,-51,1410,90,-3927.314,12544.358,3089.516,9279.311
1.401367,400,1980,233,-64,1270,44,-4084.888,12495.167,3211.492,9236.137
1.421386,343,2007,190,-24,1175,-65,-4225.459,12443.681,3331.434,9199.851,209,-65,22
1.441406,514,2037,183,-23,1079,-84,-4349.537,12393.986,3439.915,9169.136
1.461395,572,2047,187,-15,928,-68,-4449.805,12357.898,3518.584,9139.835
1.481384,583,2014,265,-36,672,1,-4517.111,12338.113,3565.394,9115.375
1.501404,464,1999,265,-56,393,25,-4550.775,12332.027,3588.911,9097.620
1.521393,378,1977,254,-61,169,8,-4559.214,12331.291,3600.624,9089.761,218,-79,41,40226
1.541412,315,1991,263,-39,40,-28,-4556.901,12330.176,3607.027,9089.894
1.561401,324,2017,236,-6,-1,-41,-4555.201,12325.735,3610.995,9095.193
1.581390,312,2043,241,30,7,-26,-4558.224,12319.214,3611.797,9102.192
1.601410,350,2032,248,46,19,-8,-4562.141,12311.313,3612.154,9110.775
1.621399,388,2038,222,60,16,-17,-4564.457,12302.789,3612.241,9121.088,220,-80,40
1.641418,392,2061,234,64,1,-25,-4562.116,12295.322,3611.057,9132.790
1.661407,391,2048,216,57,-34,-37,-4552.400,12289.809,3609.630,9145.613
1.681427,370,2048,255,45,-68,-66,-4534.867,12285.834,3609.776,9159.596
1.701416,359,2048,254,34,-98,-95,-4511.294,12283.757,3610.585,9173.694
1.721435,360,1992,214,19,-125,-111,-4483.455,12283.629,3610.602,9187.495,218,-67,52
1.741424,307,1992,246,8,-143,-111,-4456.424,12282.885,3610.434,9201.696
1.761444,286,2027,252,28,-131,-113,-4432.923,12279.195,3612.989,9216.957
1.781433,306,2043,224,37,-93,-114,-4413.630,12274.452,3618.392,9230.403
1.801452,325,1964,199,24,-71,-111,-4398.206,12269.617,3624.284,9241.877
1.821441,303,1953,208,30,-48,-92,-4388.864,12261.478,3627.532,9255.835,221,-70,57
1.841430,278,2019,196,85,-27,-67,-4386.478,12246.397,3627.729,9276.830
1.861450,285,2062,223,142,-5,-55,-4389.261,12227.318,3629.514,9299.953
1.881439,291,2050,244,152,27,-59,-4395.550,12207.216,3635.102,9321.184
1.901520,271,2048,223,141,59,-65,-4405.070,12185.848,3646.267,9340.269
1.921448,285,2040,167,135,99,-79,-4418.535,12161.430,3663.895,9358.818,211,-81,52
1.941437,261,2051,178,141,143,-99,-4435.487,12132.951,3689.219,9377.795
1.961456,274,2053,151,148,190,-132,-4454.383,12100.243,3722.044,9398.107
1.981476,301,2067,174,156,220,-163,-4473.259,12066.294,3759.828,9417.729
2.001465,269,2064,154,145,229,-174,-4492.140,12033.810,3797.840,9435.038
2.021484,238,2069,135,128,234,-165,-4512.291,12001.874,3837.225,9450.152,217,-76,51,40205
2.041473,267,2076,164,121,253,-166,-4534.884,11970.080,3879.449,9462.416
2.061462,259,2068,135,104,271,-160,-4559.933,11939.284,3922.059,9471.715
2.081482,272,2069,129,93,284,-148,-4585.169,11909.857,3964.243,9479.016
2.101471,250,2095,138,77,277,-142,-4608.468,11883.916,4004.074,9483.533
2.121490,251,2099,156,55,255,-127,-4629.444,11862.999,4040.343,9484.121,223,-72,32
2.141479,266,2109,179,17,229,-100,-4647.898,11849.206,4071.089,9479.188
2.161468,278,2080,165,-24,189,-64,-4662.406,11843.632,4093.412,9469.411
2.181488,256,2054,143,-59,133,-23,-4672.066,11843.720,4107.395,9458.479
2.201477,277,2043,197,-61,77,-3,-4676.287,11845.845,4113.073,9451.262
2.221496,361,2079,162,-40,16,6,-4672.407,11849.221,4108.721,9450.841,208,-76,49
2.241485,487,2100,126,-11,-79,12,-4654.285,11858.610,4086.667,9457.567
2.261505,568,2099,107,0,-249,42,-4612.742,11881.339,4035.006,9471.566
2.281494,572,2109,70,-9,-513,92,-4535.911,11921.816,3946.160,9495.213
2.301513,479,2139,113,-21,-844,130,-4417.083,11978.911,3822.560,9529.875
2.321502,442,2145,142,-35,-1165,126,-4259.459,12047.102,3674.892,9573.659,216,-81,36
2.341522,451,2183,98,-47,-1407,99,-4071.425,12123.338,3510.361,9620.862
2.361511,478,2140,140,-79,-1584,78,-3861.591,12206.302,3329.709,9666.581
2.381500,500,2141,143,-116,-1734,95,-3629.788,12296.788,3131.293,9707.939
2.401520,461,2092,185,-164,-1900,106,-3372.912,12393.894,2912.682,9745.079
2.421539,375,2042,174,-201,-2084,123,-3092.956,12495.234,2675.649,9776.456,202,-74,41
2.441528,287,1994,191,-240,-2224,130,-2796.167,12595.238,2428.017,9802.122
2.461517,250,1975,191,-258,-2303,123,-2488.723,12689.633,2176.201,9822.375
2.481537,259,1957,219,-267,-2343,108,-2175.218,12776.707,1920.202,9837.299
2.501526,228,1922,247,-262,-2372,113,-1858.843,12856.699,1655.932,9845.979
2.521545,176,1933,244,-262,-2404,145,-1541.935,12928.879,1385.181,9848.006,211,-74,43,40230
2.541534,89,1981,297,-256,-2406,172,-1229.154,12990.985,1112.963,9844.808
2.561523,73,2021,316,-244,-2371,187,-925.606,13044.343,844.476,9834.158
2.581543,27,1975,362,-252,-2290,207,-636.846,13089.769,583.198,9815.686
2.601532,-28,1978,392,-253,-2186,224,-364.180,13126.471,333.720,9792.201
2.621551,-53,1946,426,-235,-2055,214,-113.065,13152.771,102.766,9768.147,198,-76,37
2.641540,-54,1957,418,-198,-1871,203,111.972,13170.580,-105.266,9744.107
2.661560,-58,1931,446,-175,-1667,183,313.297,13183.306,-289.398,9718.743
2.681549,-54,1897,469,-164,-1491,150,492.398,13191.566,-452.608,9693.849
2.701568,-11,1877,512,-144,-1321,139,648.858,13197.316,-599.906,9668.784
2.721557,1,1898,543,-146,-1169,152,782.294,13203.693,-736.971,9640.685,208,-73,23
2.741577,-8,1879,556,-171,-1038,185,895.633,13213.577,-865.369,9606.549
2.761566,-20,1817,541,-217,-922,201,993.117,13225.770,-982.672,9568.830
2.781585,1,1777,483,-229,-815,187,1079.284,13235.756,-1086.126,9534.447
2.801574,18,1823,504,-182,-717,165,1154.183,13239.091,-1175.151,9510.457
2.821563,44,1926,594,-104,-614,141,1218.340,13237.996,-1251.111,9494.275,234,-73,19
2.841583,54,1994,648,-79,-532,119,1277.115,13239.405,-1316.820,9475.682
2.861572,69,2021,680,-109,-482,82,1331.813,13244.811,-1374.608,9452.362
2.881561,97,1949,658,-144,-439,66,1378.057,13254.189,-1429.410,9424.417
2.901581,113,1889,632,-176,-388,89,1414.456,13263.453,-1485.343,9397.303
2.921600,96,1921,616,-158,-351,134,1440.234,13267.309,-1544.992,9378.309,248,-76,10
2.941589,95,2027,634,-96,-314,196,1457.111,13264.328,-1608.253,9369.279
2.961578,69,2024,623,-41,-283,246,1466.258,13257.823,-1672.891,9365.741
2.981598,42,2018,627,-25,-250,273,1469.689,13251.897,-1733.736,9362.523
3.001587,35,1967,594,-34,-205,260,1469.329,13246.920,-1786.926,9359.621
3.021606,80,1927,548,-22,-164,235,1467.150,13238.999,-1832.922,9362.276,259,-65,11,40232
3.041595,114,1966,561,28,-134,222,1460.050,13225.567,-1877.246,9373.580
3.061615,171,2011,594,80,-100,255,1442.922,13209.011,-1924.725,9389.934
3.081604,196,1976,627,83,-66,310,1417.817,13194.409,-1978.314,9403.141
3.101623,227,1931,611,44,-64,353,1389.649,13182.728,-2038.819,9410.802
3.121673,260,1929,601,10,-80,388,1360.038,13172.291,-2105.502,9415.060,266,-74,20
3.141632,285,1940,603,-9,-95,414,1330.928,13162.338,-2175.742,9417.168
3.161621,280,1949,592,-20,-111,418,1305.591,13152.492,-2245.205,9418.168
3.181610,264,1962,633,-19,-124,388,1287.371,13142.909,-2308.549,9418.740
3.201629,193,1977,602,-10,-139,325,1279.144,13133.128,-2361.504,9420.375
3.221618,218,2028,639,14,-144,238,1279.500,13123.743,-2401.932,9423.184,275,-65,18
3.241638,-675,2021,75,21,-135,161,1270.836,13123.626,-2425.482,9418.487
3.261627,935,1915,484,-158,215,132,1170.827,13122.834,-2430.139,9431.343
3.281616,241,2036,558,-99,-209,331,1072.859,13130.277,-2451.432,9427.126
3.301635,204,1929,605,-188,219,333,1014.414,13145.937,-2484.013,9403.213
3.321625,83,1844,495,-265,144,304,958.823,13168.146,-2502.017,9373.149,292,-55,15
3.341644,300,1842,568,-263,259,185,893.713,13185.196,-2499.320,9356.320
3.361633,476,1949,677,-160,338,201,817.362,13194.752,-2505.570,9348.154
3.381653,425,2011,743,-146,290,290,752.614,13207.641,-2532.003,9328.246
3.401642,407,1958,739,-241,133,302,705.933,13231.084,-2565.475,9289.448
3.421631,418,1845,721,-344,54,246,666.859,13262.943,-2594.063,9238.826,310,-61,14
3.441650,469,1767,732,-397,38,190,637.032,13297.745,-2618.098,9183.962
3.461670,439,1782,735,-394,-4,134,618.805,13330.432,-2638.721,9131.771
3.481689,479,1806,794,-350,-43,81,612.222,13359.145,-2654.450,9085.580
3.501648,476,1824,819,-302,-73,31,615.294,13385.681,-2667.968,9042.253
3.521667,503,1819,826,-280,-112,0,625.042,13410.490,-2682.702,9000.367,321,-57,14,40206
3.541687,513,1788,799,-261,-145,-4,639.474,13432.218,-2701.647,8961.201
3.561676,526,1776,789,-227,-177,9,655.684,13447.069,-2727.255,8929.946
3.581665,521,1839,816,-161,-195,56,671.876,13453.023,-2761.514,8909.221
3.601654,511,1893,805,-83,-214,106,688.373,13451.380,-2801.824,8897.850
3.621673,507,1902,839,-26,-223,134,707.201,13446.235,-2842.437,8891.267,337,-67,36
3.641693,458,1889,835,-1,-229,117,730.327,13441.283,-2877.507,8885.601
3.661682,202,2179,1137,0,-228,66,758.567,13436.819,-2904.643,8881.157
3.681671,769,2118,1040,22,-225,17,684.427,13437.044,-2892.377,8890.838
3.701690,446,1878,688,43,-131,307,599.390,13428.672,-2915.810,8901.965
3.721679,339,1756,732,-34,241,341,547.595,13421.782,-2944.241,8906.334,337,-55,48
3.741699,552,1726,800,-21,131,295,517.453,13414.968,-2973.773,8908.590
3.761688,653,1748,755,3,-1,181,513.062,13406.835,-2996.622,8913.429
3.781677,601,1820,703,65,-75,95,521.391,13395.337,-3023.170,8921.265
3.801697,613,1805,730,70,-140,112,538.718,13383.393,-3066.030,8923.534
3.821686,590,1627,704,30,-274,161,575.900,13376.513,-3126.115,8910.672,350,-47,51
3.841705,562,1512,667,-38,-443,150,632.643,13372.495,-3193.171,8889.051
3.861725,537,1411,623,-39,-544,102,711.378,13366.809,-3256.790,8868.546
3.881714,480,1325,518,21,-626,2,813.040,13353.554,-3309.084,8860.415
3.901703,431,1330,423,164,-668,-111,933.892,13325.505,-3347.473,8876.295
3.921722,375,1372,374,360,-684,-202,1071.330,13281.510,-3374.377,8916.432,360,-51,61
3.941711,266,1487,348,521,-699,-268,1218.081,13228.483,-3391.781,8969.658
3.961731,111,1573,271,587,-686,-323,1368.169,13174.663,-3394.842,9025.899
3.981720,27,1613,185,590,-640,-403,1517.511,13125.546,-3378.679,9079.490
4.001709,-51,1551,131,563,-563,-487,1658.924,13079.272,-3343.459,9134.403
4.021728,-43,1480,79,570,-458,-543,1793.535,13033.065,-3291.730,9193.605,366,-47,60,40238
4.041748,28,1522,-83,600,-377,-590,1920.933,12983.463,-3229.284,9259.960
4.061737,200,1746,-9,650,-308,-586,2033.908,12923.558,-3168.746,9340.201
4.081756,342,1775,51,724,-240,-464,2113.134,12859.381,-3127.734,9424.632
4.101745,362,1886,6,632,-140,-238,2152.320,12808.399,-3105.884,9492.173
4.121765,241,1848,-17,438,-24,-90,2165.437,12777.173,-3078.005,9540.232,344,-48,61
4.141754,329,1650,-120,271,93,-160,2193.715,12761.156,-3023.472,9572.594
4.161743,293,1942,-4,257,50,-383,2239.748,12742.954,-2953.261,9608.035
4.181762,131,2457,341,310,41,-452,2287.216,12730.430,-2883.771,9634.526
4.201751,85,2531,176,152,39,-438,2322.422,12754.166,-2829.080,9610.897
4.221771,177,2460,150,-256,22,-394,2336.554,12800.171,-2786.522,9558.602,303,-49,56
4.241760,207,2589,342,-393,85,-293,2330.561,12846.796,-2758.567,9505.475
4.261780,75,2898,748,-409,107,-158,2311.217,12898.973,-2743.123,9443.806
4.281769,-23,2865,977,-525,129,-115,2286.984,12967.877,-2717.602,9362.368
4.301758,48,2561,871,-630,202,-223,2266.076,13039.732,-2667.431,9281.731
4.321777,115,2466,771,-499,244,-336,2261.694,13077.051,-2606.642,9247.503,289,-67,34
4.341858,316,2580,534,-44,184,-306,2267.594,13049.901,-2565.719,9295.731
4.361786,430,2538,217,590,88,-32,2263.178,12941.674,-2570.330,9445.630
4.381775,460,2607,75,1264,15,383,2257.410,12757.455,-2612.475,9683.070
4.401794,407,2763,1,1787,-90,603,2266.423,12538.986,-2668.403,9947.473
4.421783,409,2816,-82,1841,-207,581,2294.103,12334.379,-2723.304,10179.353,263,-84,27
4.441772,448,2573,-222,1554,-278,452,2319.092,12170.623,-2774.272,10355.511
4.461792,478,2296,-323,1147,-228,402,2322.517,12040.754,-2828.575,10490.984
4.481781,435,2039,-413,915,-159,461,2305.918,11920.180,-2879.192,10617.802
4.501800,406,1921,-415,889,-50,472,2288.370,11803.306,-2906.196,10744.059
4.521789,399,1941,-347,892,22,307,2290.279,11698.966,-2904.334,10857.675,250,-85,37,40230
4.541809,380,1857,-238,790,26,84,2308.016,11619.178,-2883.383,10944.829
4.561798,336,1655,-261,603,27,-63,2328.530,11566.964,-2854.531,11003.198
4.581817,311,1479,-309,396,49,-135,2351.110,11533.724,-2820.361,11042.033
4.601806,320,1458,-337,287,45,-198,2385.370,11507.006,-2783.582,11071.852
4.621795,293,1659,-274,267,-19,-265,2432.049,11481.055,-2753.496,11096.135,279,-95,-34
4.641815,204,1756,-212,231,-93,-259,2476.930,11464.730,-2734.746,11107.717
4.661804,156,1806,-201,99,-119,-220,2516.123,11466.076,-2723.257,11100.339
4.681823,105,1848,-159,-57,-116,-216,2552.842,11483.716,-2712.303,11076.376
4.701812,83,1907,-115,-175,-111,-242,2590.834,11515.075,-2700.051,11037.925
4.721832,33,1954,-90,-274,-118,-278,2629.854,11557.423,-2686.364,10987.662,292,-110,-74
4.741852,11,2013,-54,-354,-109,-303,2665.411,11607.416,-2670.477,10930.117
4.761841,5,2121,20,-398,-78,-302,2692.549,11660.233,-2654.053,10871.089
4.781830,35,2172,-18,-414,-37,-258,2707.267,11713.353,-2641.501,10813.231
4.801849,68,2182,34,-423,-5,-187,2708.243,11762.940,-2636.147,10760.336
4.821838,69,2180,28,-392,24,-91,2696.286,11804.539,-2637.168,10717.447,297,-72,-90
4.841827,110,2211,35,-322,57,-6,2675.160,11833.875,-2639.003,10689.902
4.861847,137,2233,50,-209,89,41,2652.038,11849.291,-2639.681,10678.413
4.881866,160,2283,48,-92,94,62,2631.695,11851.980,-2639.941,10680.398
4.901855,129,2336,36,3,81,72,2613.583,11846.103,-2640.535,10691.213
4.921844,167,2382,48,60,73,75,2597.178,11835.351,-2640.574,10707.097,292,-67,-76
4.941864,166,2354,28,95,72,78,2579.943,11821.835,-2640.315,10726.242
4.961853,149,2323,24,113,81,88,2561.633,11805.753,-2639.105,10748.617
4.981872,155,2258,-13,139,90,90,2543.130,11787.933,-2633.872,10773.823
5.001861,141,2190,-32,159,110,68,2527.672,11768.220,-2619.925,10802.374
5.021850,136,2166,-54,192,128,9,2521.932,11747.394,-2593.355,10832.752,280,-62,-58,40242
5.041870,140,2156,-67,224,132,-87,2525.408,11724.680,-2555.910,10865.401
5.061859,133,2119,-53,256,139,-139,2530.850,11702.014,-2515.793,10897.884
5.081878,118,2056,-67,245,136,-144,2535.784,11682.102,-2478.001,10926.721
5.101867,137,1986,-78,209,126,-135,2540.946,11664.813,-2443.394,10951.758
5.121887,97,1924,-92,187,110,-128,2546.827,11648.964,-2410.975,10974.421,284,-57,-52
5.141876,81,1902,-68,174,99,-131,2554.534,11634.307,-2379.086,10995.119
5.161896,103,1912,-64,163,91,-141,2563.489,11622.116,-2348.778,11012.429
5.181885,94,1895,-71,132,77,-135,2570.327,11614.201,-2323.198,11024.606
5.201904,78,1868,-87,84,69,-109,2573.066,11609.637,-2302.409,11033.132
5.221893,74,1852,-107,55,73,-82,2572.329,11607.816,-2282.725,11039.308,282,-67,-56
5.241913,71,1871,-29,34,86,-77,2568.830,11609.074,-2261.087,11043.253
5.261902,73,1908,-42,9,112,-82,2561.743,11617.147,-2236.057,11041.506
5.281891,72,1889,-30,-50,142,-95,2552.125,11632.824,-2206.541,11033.162
5.301910,70,1877,-6,-99,171,-120,2540.408,11656.033,-2171.132,11018.387
5.321930,82,1881,12,-151,204,-143,2526.630,11685.387,-2130.565,10998.363,285,-62,-67
5.341919,42,1889,16,-187,232,-166,2510.425,11719.802,-2085.552,10974.056
5.361908,47,1947,6,-221,261,-184,2493.237,11758.789,-2035.723,10945.589
5.381927,5,1943,35,-252,284,-209,2475.360,11803.385,-1980.886,10911.655
5.401916,-21,1965,85,-299,305,-235,2457.317,11854.016,-1921.154,10871.453
5.421905,-6,1966,81,-339,325,-264,2438.055,11909.580,-1857.283,10826.067,273,-67,-67
5.441925,-33,1957,118,-372,346,-279,2417.073,11967.707,-1790.759,10777.772
5.461944,-34,1922,108,-384,363,-283,2393.600,12025.073,-1724.311,10729.887
5.481933,-20,1933,99,-374,368,-265,2366.306,12078.535,-1660.411,10685.881
5.501922,-43,1971,179,-338,373,-224,2334.859,12124.396,-1601.683,10649.766
5.521942,-20,2031,183,-276,362,-178,2302.484,12163.773,-1548.097,10619.794,272,-71,-64,40226
5.541931,-26,2030,185,-240,346,-145,2267.826,12198.224,-1499.628,10594.661
5.562011,-2,2061,178,-208,336,-108,2231.566,12228.373,-1456.155,10573.648
5.581939,11,2055,175,-179,319,-85,2196.964,12253.519,-1416.801,10557.118
5.601959,31,2040,191,-143,292,-70,2163.876,12273.185,-1381.726,10545.750
5.621948,56,2037,164,-99,272,-47,2130.509,12286.226,-1351.748,10541.243,269,-64,-50
5.641937,85,2030,169,-42,248,-14,2098.933,12289.434,-1327.855,10546.872
5.661957,113,2041,126,41,214,18,2068.785,12281.630,-1310.944,10564.022
5.681946,94,2082,155,128,181,56,2039.403,12263.555,-1298.591,10592.220
5.701965,109,2113,113,205,165,77,2012.715,12237.353,-1285.381,10629.176
5.721985,86,2100,88,269,157,59,1992.466,12205.328,-1266.189,10672.031,253,-59,-41
5.741974,86,2126,43,315,152,2,1980.398,12168.796,-1237.865,10719.214
5.761963,76,2181,53,360,152,-60,1973.238,12130.165,-1202.157,10768.272
5.781982,58,2202,-16,365,161,-99,1968.848,12092.459,-1161.193,10815.874
5.801971,56,2123,-36,354,170,-134,1967.926,12055.809,-1115.535,10861.664
5.821960,79,2078,-51,355,167,-170,1973.915,12015.889,-1067.520,10909.533,253,-59,-34
5.841980,89,2111,-117,397,132,-201,1989.528,11968.828,-1024.034,10962.468
5.861999,71,2150,-152,443,64,-192,2005.596,11914.977,-991.865,11021.005
5.881988,35,2177,-119,476,28,-119,2013.907,11859.514,-972.533,11080.872
5.901977,-18,2139,-136,459,19,-33,2013.824,11807.092,-960.490,11137.773
5.921997,9,2148,-213,420,40,12,2007.338,11759.345,-947.482,11190.447,254,-53,-44
5.941986,41,2106,-198,390,72,14,1998.943,11713.063,-930.914,11241.762
5.962005,64,2112,-242,389,88,0,1991.262,11667.034,-912.113,11292.417
5.981994,83,2113,-260,384,90,-12,1982.539,11620.868,-893.754,11342.910
6.002014,96,2120,-265,385,93,1,1973.636,11576.628,-875.632,11391.012
6.022003,103,2124,-262,355,90,-7,1966.104,11537.069,-858.762,11433.653,246,-73,-55,40253
6.042022,108,2086,-267,309,80,-13,1959.548,11503.898,-843.873,11469.255
6.062011,107,2042,-285,253,69,-18,1956.808,11476.524,-829.793,11498.138
6.082000,106,2050,-309,211,51,-40,1958.458,11452.428,-815.841,11522.854
6.102020,84,2053,-287,185,38,-60,1961.599,11431.483,-802.249,11544.052
6.122009,75,2065,-320,154,35,-61,1964.724,11415.896,-787.972,11559.918,253,-68,-71
6.142029,47,2023,-305,108,45,-71,1966.079,11405.431,-772.001,11571.089
6.162018,27,2055,-309,71,64,-74,1965.596,11400.805,-752.782,11576.995
6.182037,44,2021,-296,30,89,-86,1962.945,11400.485,-730.259,11579.203
6.202026,54,2022,-280,-2,111,-93,1958.257,11404.389,-705.111,11577.711
6.222015,67,2036,-277,-25,129,-94,1951.062,11410.171,-679.441,11574.764,245,-72,-81
6.242035,67,2038,-262,-36,140,-87,1941.432,11417.611,-654.632,11570.475
6.262024,48,2063,-259,-49,145,-73,1930.617,11427.313,-630.505,11564.044
6.282043,53,2077,-231,-73,144,-73,1921.021,11441.963,-606.490,11552.435
6.302032,53,2042,-247,-116,142,-87,1912.571,11461.434,-582.424,11535.763
6.322113,25,2050,-202,-155,140,-91,1904.250,11484.614,-558.103,11515.269,255,-73,-89
6.342071,36,2067,-190,-176,144,-96,1895.700,11510.008,-533.233,11492.481
6.362060,23,2040,-193,-197,147,-101,1887.118,11538.264,-506.606,11466.736
6.382049,2,2040,-179,-216,158,-113,1880.010,11568.388,-476.991,11438.788
6.402069,-15,2050,-170,-229,162,-136,1874.286,11598.808,-443.943,11410.217
6.422058,-15,2047,-140,-223,173,-154,1870.146,11628.729,-407.927,11381.751,247,-70,-88
6.442047,-26,2032,-96,-218,177,-167,1865.427,11658.439,-371.636,11353.338
6.462066,-32,2031,-135,-215,180,-159,1859.609,11687.481,-337.810,11325.457
6.482086,-64,2048,-90,-213,171,-136,1852.084,11714.382,-308.023,11299.717
6.502075,-44,2063,-36,-192,155,-119,1846.204,11738.829,-282.364,11275.953
6.522064,-52,2083,-30,-182,129,-102,1837.932,11763.144,-263.518,11252.397,239,-78,-82,40230
6.542053,-66,2046,-32,-190,116,-55,1827.301,11787.439,-251.515,11228.955
6.562073,-53,2017,-25,-189,98,-26,1816.628,11809.901,-243.933,11207.232
6.582092,-76,2017,-36,-169,80,-7,1805.321,11828.171,-240.694,11189.848
6.602081,-63,2035,7,-137,61,16,1794.268,11842.754,-241.516,11176.175
6.622101,-55,2061,22,-111,43,33,1783.253,11854.262,-244.941,11165.658,231,-71,-68
6.642090,-62,2049,16,-92,33,46,1770.376,11863.520,-251.909,11157.716
6.662079,-53,2026,6,-75,28,75,1754.241,11870.977,-262.509,11152.087
6.682098,-48,2005,10,-59,29,103,1735.943,11875.450,-275.416,11149.878
6.702087,-43,2010,3,-27,26,117,1717.260,11874.839,-287.271,11153.121
6.722107,-35,2046,-7,19,31,108,1700.266,11869.008,-296.469,11161.688,223,-74,-56
6.742096,-18,2021,0,61,30,91,1686.383,11859.936,-303.979,11173.229
6.762085,-25,2026,-25,77,20,77,1673.785,11849.090,-310.990,11186.430
6.782196,-35,2065,-38,90,18,78,1660.428,11837.180,-318.938,11200.797
6.802093,-45,2083,-46,97,19,89,1645.767,11824.920,-327.870,11215.643
6.822113,-36,2052,-78,93,22,97,1629.439,11813.346,-336.803,11229.951,223,-58,-63
6.842102,-6,2049,-62,86,33,102,1611.571,11802.269,-345.026,11243.918
6.862121,2,2031,-90,89,40,106,1592.985,11789.556,-353.434,11259.631
6.882110,21,2071,-56,106,36,112,1573.167,11775.786,-362.703,11276.520
6.902130,30,2078,-46,108,39,121,1551.738,11763.392,-372.841,11292.083
6.922119,58,2058,-92,93,46,128,1528.469,11752.567,-383.014,11306.179,229,-68,-55
6.942108,58,2072,-66,84,55,132,1506.296,11741.463,-390.961,11320.411
6.962127,70,2087,-97,93,57,110,1486.559,11728.659,-395.404,11336.127
6.982116,65,2051,-106,108,58,81,1472.486,11714.054,-394.993,11353.067
7.002136,73,2083,-117,124,49,35,1463.360,11698.242,-390.972,11370.676
7.022156,41,2091,-167,126,48,12,1455.017,11683.834,-385.479,11386.737,245,-60,-58,40220
7.042145,25,2044,-155,112,53,4,1449.247,11669.968,-375.944,11402.001
7.062164,30,2049,-162,114,58,-31,1447.106,11655.180,-360.885,11417.874
7.082153,3,2078,-142,128,66,-63,1447.373,11639.156,-342.183,11434.750
7.102173,8,2101,-136,134,67,-85,1449.969,11623.732,-321.040,11450.712
7.122162,3,2079,-143,125,66,-104,1453.932,11609.383,-298.536,11465.365,242,-74,-49
7.142151,2,2076,-161,121,69,-111,1457.987,11596.386,-275.146,11478.582
7.162170,18,2059,-186,108,71,-115,1463.286,11582.980,-251.419,11491.979
7.182159,-3,2060,-188,114,67,-122,1469.914,11568.889,-227.726,11505.813
7.202179,0,2078,-159,119,61,-127,1477.369,11554.461,-204.205,11519.789
7.222168,-1,2122,-181,119,55,-128,1485.399,11540.679,-182.412,11532.930,250,-71,-73
7.242157,-21,2090,-199,110,46,-122,1494.674,11528.604,-161.945,11544.108
7.262176,-32,2102,-169,90,38,-126,1506.420,11517.727,-140.960,11553.711
7.282165,-60,2098,-191,86,29,-142,1520.985,11507.030,-119.205,11562.703
7.302185,-85,2114,-231,80,22,-155,1535.658,11497.811,-96.850,11570.141
7.322326,-89,2120,-196,67,30,-151,1547.393,11490.096,-74.161,11576.407,239,-73,-68
7.342193,-112,2121,-213,57,45,-139,1556.936,11484.524,-51.200,11580.780
7.362182,-90,2110,-210,40,55,-135,1564.689,11481.096,-28.262,11583.213
7.382202,-81,2091,-222,25,62,-127,1571.211,11478.055,-5.171,11585.377
7.402191,-91,2063,-237,26,66,-124,1576.756,11474.373,17.196,11588.259
7.422210,-103,2095,-233,36,66,-118,1581.186,11468.750,38.514,11593.170,242,-67,-79
7.442199,-75,2068,-231,55,66,-104,1583.637,11461.459,58.442,11599.959
7.462219,-84,2074,-259,61,68,-90,1582.963,11453.434,76.999,11607.867
7.482208,-91,2084,-229,70,77,-70,1580.075,11445.327,95.304,11616.118
7.502197,-86,2146,-226,61,83,-64,1574.147,11440.911,113.469,11621.109
7.522217,-77,2141,-203,22,103,-48,1563.393,11442.494,131.277,11620.814,235,-70,-72,40216
7.542206,-55,2091,-213,-26,125,-34,1550.007,11451.741,150.296,11613.266
7.562225,-68,2080,-197,-85,140,-44,1537.161,11466.127,172.464,11600.463
7.582214,-64,2076,-188,-116,156,-63,1526.502,11483.662,198.074,11584.105
7.602234,-70,2079,-186,-141,160,-89,1517.698,11505.076,227.868,11563.448
7.622223,-66,2030,-182,-169,173,-113,1508.375,11528.872,262.093,11540.219,224,-71,-82
7.642242,-32,2001,-145,-180,197,-128,1497.877,11551.959,298.945,11517.581
7.662231,-50,1983,-181,-161,212,-124,1484.377,11571.244,338.485,11498.861
7.682220,-73,1932,-223,-123,233,-129,1469.735,11584.862,384.571,11485.573
7.702209,-80,1958,-188,-72,265,-160,1457.336,11592.310,442.634,11477.544
7.722229,-89,2000,-150,-20,301,-228,1449.847,11594.263,515.114,11473.496,224,-68,-82
7.742248,-76,2067,-144,19,336,-307,1446.341,11596.351,600.269,11467.687
7.762237,-102,2052,-141,-14,367,-372,1445.058,11605.297,696.509,11453.348
7.782226,-108,2018,-171,-80,420,-420,1443.511,11621.973,803.242,11429.622
7.802246,-121,1964,-149,-136,462,-465,1443.898,11642.808,916.188,11399.834
7.822265,-126,1930,-114,-169,474,-491,1444.191,11665.560,1030.248,11366.752,233,-62,-72
7.842254,-160,1908,-70,-181,473,-486,1444.650,11687.637,1139.506,11333.538
7.862243,-176,1944,-70,-171,445,-456,1446.111,11708.444,1239.635,11301.320
7.882263,-213,1991,-34,-174,395,-422,1449.245,11729.686,1328.334,11268.767
7.902252,-223,2041,-14,-188,344,-379,1453.865,11753.916,1404.146,11233.678
7.922271,-210,2062,46,-222,289,-328,1458.860,11782.614,1464.601,11195.183,220,-76,-68
7.942260,-247,2039,30,-262,228,-263,1464.069,11814.934,1508.956,11154.475
7.962250,-259,2053,61,-283,162,-200,1469.714,11847.862,1539.207,11114.602
7.982269,-284,2031,102,-284,118,-142,1475.646,11878.533,1560.089,11078.108
8.002350,-276,2112,125,-255,74,-117,1484.680,11905.319,1574.845,11046.012
8.022278,-291,2146,116,-227,34,-102,1493.782,11928.667,1581.667,11018.588,190,-74,-72,40232
8.042267,-274,2090,112,-196,-1,-62,1503.718,11946.678,1580.844,10997.822
8.062286,-265,2104,75,-149,-39,-41,1513.948,11957.145,1573.579,10986.078
8.082275,-266,2123,116,-74,-72,-12,1523.706,11958.366,1560.521,10985.263
8.102295,-254,2098,94,1,-100,11,1533.633,11950.940,1542.672,10994.480
8.122284,-259,2058,54,74,-127,30,1544.156,11934.536,1522.869,11013.570,181,-65,-51
8.142273,-265,2110,49,147,-147,29,1556.438,11909.758,1502.553,11041.419
8.162292,-273,2119,0,204,-165,24,1570.159,11880.315,1481.015,11074.057
8.182281,-288,2080,10,232,-182,25,1584.160,11848.682,1456.595,11109.137
8.202301,-269,2066,-66,244,-190,44,1596.457,11817.043,1429.691,11144.516
8.222320,-258,2072,-41,239,-191,66,1606.260,11785.598,1399.886,11180.132,170,-71,-39
8.242309,-249,2023,-53,241,-196,86,1612.934,11754.139,1368.037,11216.174
8.262298,-226,2005,-91,243,-187,101,1617.732,11722.714,1335.417,11252.244
8.282318,-224,2010,-88,243,-184,108,1623.533,11691.049,1302.993,11288.098
8.302307,-244,2032,-102,239,-186,99,1628.792,11660.423,1272.640,11322.428
8.322357,-217,2060,-104,231,-169,95,1633.182,11631.965,1243.793,11354.229,176,-77,-49
8.342315,-213,2055,-144,208,-152,95,1634.178,11606.328,1216.397,11383.252
8.362304,-179,2034,-145,186,-124,101,1631.729,11583.692,1193.244,11409.081
8.382324,-180,2055,-160,166,-96,90,1628.036,11563.143,1174.126,11432.414
8.402344,-176,2062,-135,155,-74,77,1623.252,11544.335,1159.275,11453.597
8.422333,-134,2046,-149,140,-51,64,1617.040,11527.764,1149.011,11472.186,188,-77,-56
8.442322,-167,2017,-148,127,-26,48,1609.873,11510.921,1142.795,11490.712
8.462341,-135,2004,-158,140,-6,33,1604.685,11492.713,1140.976,11509.828
8.482330,-167,2023,-198,147,-1,5,1602.951,11472.441,1143.642,11530.011
8.502350,-143,2068,-158,164,-2,-33,1606.281,11450.516,1151.298,11550.563
8.522339,-140,2076,-181,160,-2,-67,1610.406,11431.922,1159.594,11567.563,195,-81,-58,40220
8.542358,-139,2067,-192,126,0,-62,1614.544,11417.478,1166.441,11580.556
8.562347,-190,2136,-189,94,-11,-58,1620.135,11405.368,1171.614,11591.182
8.582367,-188,2116,-161,82,-18,-61,1628.468,11393.972,1176.116,11600.762
8.602356,-228,2109,-169,76,-22,-68,1638.426,11382.494,1179.999,11610.229
8.622375,-205,2103,-187,74,-39,-77,1652.340,11370.812,1184.371,11619.255,195,-70,-70
8.642364,-229,2113,-168,76,-50,-95,1668.402,11358.476,1188.644,11628.586
8.662353,-213,2075,-188,74,-60,-94,1684.041,11346.109,1190.437,11638.217
8.682373,-211,2082,-248,83,-65,-77,1696.520,11331.553,1190.999,11650.523
8.702362,-226,2078,-223,105,-56,-60,1706.705,11313.270,1192.747,11666.613
8.722351,-260,2098,-228,135,-49,-62,1716.087,11292.633,1196.200,11684.863,196,-83,-82
8.742370,-256,2104,-217,151,-37,-63,1723.183,11271.018,1201.356,11704.144
8.762390,-244,2090,-246,156,-17,-58,1728.554,11251.555,1208.721,11721.307
8.782379,-250,2083,-272,135,0,-64,1733.001,11234.095,1218.220,11736.404
8.802368,-271,2080,-276,124,11,-68,1735.991,11218.798,1229.193,11749.444
8.822387,-291,2090,-258,106,25,-67,1736.917,11205.458,1240.921,11760.798,198,-85,-75
8.842407,-275,2073,-247,95,44,-57,1734.680,11193.734,1254.135,11770.887
8.862396,-268,2054,-223,88,64,-54,1730.610,11183.511,1268.817,11779.627
8.882416,-259,2072,-316,78,70,-56,1726.119,11174.594,1284.976,11786.994
8.902405,-275,2073,-239,66,79,-55,1719.751,11166.792,1301.930,11793.457
8.922424,-241,2034,-262,64,89,-51,1710.901,11160.543,1319.396,11798.717,188,-74,-79
8.942413,-222,2039,-233,57,110,-43,1701.977,11153.629,1336.487,11804.621
8.962402,-232,1982,-210,64,100,-43,1695.763,11144.608,1354.289,11812.004
8.982422,-237,2010,-237,82,88,-64,1690.714,11133.077,1372.171,11821.534
9.002411,-240,2017,-268,106,81,-59,1686.735,11117.994,1388.696,11834.360
9.022430,-219,2044,-283,128,71,-66,1683.778,11100.846,1403.109,11849.170,191,-73,-91,40245
9.042419,-248,2041,-228,130,46,-51,1679.466,11085.331,1415.301,11862.849
9.062408,-232,2025,-259,114,50,-42,1676.572,11070.058,1427.186,11876.089
9.082397,-235,2025,-259,117,41,-53,1676.872,11054.298,1438.351,11889.372
9.102417,-279,2017,-307,117,19,-63,1679.100,11039.579,1448.338,11901.515
9.122406,-319,2062,-259,102,18,-61,1682.748,11026.527,1458.570,11911.845,191,-76,-80
9.142425,-313,2065,-262,88,19,-69,1686.094,11015.897,1468.522,11919.982
9.162445,-296,2022,-247,64,23,-63,1689.797,11006.939,1477.481,11926.624
9.182434,-299,2014,-275,59,9,-62,1694.930,10997.448,1485.097,11933.703
9.202453,-318,2028,-241,66,3,-64,1699.781,10987.203,1491.495,11941.650
9.222503,-336,2059,-275,70,-2,-52,1702.651,10977.870,1496.445,11949.202,185,-91,-93
9.242431,-330,2050,-279,61,6,-35,1703.208,10970.728,1500.520,11955.169
9.262451,-338,1997,-297,48,7,-29,1703.080,10964.455,1504.776,11960.407
9.282440,-317,2040,-248,47,20,-30,1701.124,10957.290,1509.316,11966.677
9.302459,-327,2022,-286,59,23,-16,1696.659,10949.866,1513.819,11973.536
9.322448,-330,2020,-306,57,33,-7,1689.739,10942.634,1518.869,11980.484,194,-85,-89
9.342468,-330,2041,-268,59,42,1,1679.507,10935.356,1524.384,11987.866
9.362457,-337,2061,-305,68,64,17,1665.420,10927.007,1530.337,11996.683
9.382446,-305,2074,-271,78,79,30,1647.090,10918.568,1537.743,12005.946
9.402466,-296,2060,-283,79,97,44,1626.818,10912.224,1545.037,12013.539
9.422455,-273,2061,-284,58,110,48,1603.903,10908.404,1552.082,12019.180,189,-80,-91
9.442474,-262,2014,-271,48,121,62,1579.375,10905.391,1559.148,12024.247
9.462494,-243,2041,-290,40,125,60,1555.526,10902.690,1566.857,12028.802
9.482483,-244,2025,-296,47,117,55,1533.980,10898.684,1574.782,12034.163
9.502472,-245,2029,-265,53,112,45,1513.385,10892.255,1584.823,12041.272
9.522461,-230,2101,-291,72,115,22,1495.269,10884.127,1598.029,12049.136,183,-89,-99,40222
9.542480,-220,2052,-285,77,123,9,1477.173,10876.378,1612.616,12056.420
9.562500,-242,2041,-317,72,123,4,1460.962,10867.967,1628.480,12063.845
9.582489,-218,2027,-303,78,121,-19,1446.273,10858.246,1646.932,12071.861
9.602478,-218,2039,-337,92,130,-30,1433.869,10845.412,1667.131,12082.101
9.622497,-223,2055,-364,112,123,-47,1423.422,10830.747,1688.693,12093.491,195,-79,-111
9.642486,-247,2051,-354,119,115,-65,1415.862,10814.888,1712.425,12105.229
9.662506,-243,2017,-380,123,117,-85,1411.598,10799.584,1737.566,12115.802
9.682495,-279,2064,-382,108,110,-107,1410.196,10785.139,1764.619,12124.920
9.702514,-274,2067,-310,101,110,-122,1410.551,10771.633,1792.160,12132.842
9.722503,-319,2061,-271,91,106,-122,1412.310,10760.138,1816.850,12139.164,196,-78,-96
9.742523,-286,2040,-342,77,88,-116,1414.107,10750.511,1838.870,12144.168
9.762512,-318,2019,-373,61,77,-106,1416.137,10741.914,1858.339,12148.574
9.782501,-304,2026,-349,53,66,-98,1417.396,10733.517,1874.645,12153.342
9.802521,-344,2063,-365,55,55,-72,1417.168,10727.358,1886.069,12157.039
9.822510,-331,2086,-335,33,39,-49,1414.531,10724.528,1894.154,12158.585,182,-92,-98
9.842529,-332,2027,-324,12,45,-25,1410.111,10723.632,1899.811,12159.007
9.862518,-336,2012,-381,4,42,-10,1405.013,10721.968,1903.983,12160.412
9.882507,-341,1999,-376,18,39,-5,1399.955,10717.556,1906.900,12164.427
9.902527,-340,2026,-423,38,33,3,1393.158,10712.232,1908.478,12169.648
9.922546,-322,2027,-338,38,29,17,1384.336,10708.679,1907.701,12173.904,182,-85,-103
9.942535,-329,2056,-357,22,31,37,1371.625,10709.460,1904.291,12175.189
9.962555,-328,2040,-411,-9,35,66,1356.309,10713.849,1898.638,12173.926
9.982544,-282,2003,-393,-27,47,84,1338.700,10719.742,1892.443,12171.652
10.002533,-305,2003,-355,-33,48,88,1320.106,10725.615,1887.236,12169.317
10.022552,-248,2056,-338,-28,59,82,1301.538,10731.896,1883.895,12166.297,187,-90,-101,40238
10.042541,-219,2073,-325,-39,69,81,1281.248,10742.169,1881.282,12159.786
10.062561,-237,2056,-300,-78,81,88,1259.419,10758.460,1880.106,12147.840
10.082550,-234,2032,-337,-112,101,80,1240.106,10777.215,1882.393,12132.840
10.102539,-197,2019,-320,-130,105,58,1221.909,10795.154,1887.967,12117.862
10.122558,-233,2046,-322,-122,116,40,1204.778,10813.312,1895.273,12102.238,182,-85,-110
10.142547,-204,2026,-295,-130,116,30,1188.139,10832.067,1904.488,12085.653
10.162567,-185,2015,-307,-130,125,22,1172.070,10849.922,1913.811,12069.722
10.182556,-241,2017,-306,-121,124,20,1154.684,10864.817,1923.595,12056.436
10.202575,-219,2040,-261,-96,129,28,1135.780,10876.185,1935.814,12046.022
10.222564,-209,2015,-254,-62,144,14,1118.382,10884.197,1950.572,12038.031,187,-87,-94
10.242584,-185,2030,-283,-43,138,0,1101.034,10889.920,1966.651,12031.836
10.262573,-189,2039,-281,-29,135,-3,1084.680,10894.172,1982.016,12026.950
10.282562,-208,2054,-314,-22,124,-7,1069.105,10898.063,1996.131,12022.485
10.302612,-232,2137,-255,-22,120,-4,1056.202,10904.252,2008.378,12015.972
10.322571,-204,2095,-258,-55,109,-6,1045.735,10915.325,2018.496,12005.133,183,-91,-102
10.342590,-202,2075,-271,-98,96,-3,1035.704,10931.137,2026.379,11990.278
10.362579,-199,2069,-259,-127,87,3,1027.822,10948.633,2034.007,11973.690
10.382599,-213,2098,-213,-134,83,-10,1023.673,10965.343,2043.522,11957.123
10.402618,-220,2070,-238,-132,74,-38,1020.063,10981.722,2055.860,11940.273
10.422607,-221,2091,-217,-130,82,-52,1016.967,10998.583,2070.955,11922.396
10.442688,-220,2086,-251,-140,94,-61,1014.799,11014.942,2090.132,11904.118,183,-86,-95
10.462616,-220,2070,-266,-132,107,-87,1014.830,11028.494,2113.518,11887.427
10.482605,-217,2037,-249,-111,118,-114,1017.941,11038.216,2140.944,11873.221
10.502685,-247,2072,-251,-84,118,-146,1023.707,11043.818,2171.007,11862.052
10.522613,-266,2107,-226,-58,103,-163,1034.561,11045.166,2202.692,11854.011,183,-86,-95,40267
10.542633,-265,2096,-225,-33,87,-194,1047.866,11045.906,2233.452,11846.394,195,-84,-88
10.562622,-337,2058,-190,-42,77,-188,1062.604,11048.842,2260.027,11837.300
10.582641,-319,2052,-208,-61,56,-177,1079.705,11051.472,2283.285,11828.831
10.602630,-310,2086,-203,-52,26,-174,1097.660,11053.237,2300.164,11822.258
10.622619,-305,2108,-141,-41,2,-137,1110.975,11057.691,2308.527,11815.217
10.642639,-344,2031,-206,-68,-8,-78,1118.322,11067.086,2308.965,11805.637,182,-87,-84
10.662628,-316,2038,-207,-96,-17,-27,1120.530,11078.431,2305.759,11795.410
10.682647,-368,2023,-162,-97,-6,7,1114.122,11090.989,2301.287,11785.083
10.702636,-319,2047,-161,-90,30,50,1101.070,11103.598,2297.344,11775.203
10.722656,-295,2031,-122,-81,54,72,1081.102,11115.249,2294.260,11766.658
10.742645,-268,2014,-180,-61,83,88,1057.043,11123.534,2294.071,11761.051,181,-86,-79
10.762665,-271,1982,-149,-23,107,91,1030.611,11125.973,2297.594,11760.402
10.782654,-224,1995,-189,23,119,77,1002.574,11122.948,2303.886,11764.456
10.802673,-244,2019,-165,66,134,72,974.652,11115.244,2311.370,11772.612
10.822662,-196,2023,-193,99,132,61,948.033,11104.224,2320.662,11783.353
10.842651,-206,2064,-182,114,130,46,921.846,11090.942,2330.663,11795.958,178,-86,-81
10.862671,-201,2092,-231,126,128,42,896.972,11077.160,2340.225,11808.927
10.882660,-177,2114,-203,123,121,41,872.453,11064.299,2348.613,11821.149
10.902679,-162,2092,-260,110,115,48,846.896,11053.380,2356.501,11831.648
10.922668,-168,2097,-243,97,115,53,822.387,11043.399,2364.280,11841.142
10.942657,-164,2147,-181,90,110,39,802.371,11033.489,2372.442,11850.117,178,-81,-70
10.962677,-136,2183,-183,86,100,17,785.858,11025.551,2381.315,11856.830
10.982666,-160,2146,-197,56,86,7,773.509,11021.119,2390.547,11859.904
11.002746,-224,2138,-257,27,78,-13,766.161,11016.527,2401.407,11862.453
11.022674,-239,2161,-231,39,66,-48,765.750,11006.636,2417.677,11868.355,178,-81,-70,40222
11.042694,-247,2209,-170,72,62,-104,768.056,10993.251,2439.308,11876.183,190,-89,-86
11.062713,-241,2179,-216,88,82,-118,768.942,10980.399,2462.428,11883.242
11.082702,-248,2136,-248,81,89,-119,768.638,10967.342,2486.412,11890.323
11.102691,-211,2117,-288,84,97,-119,767.104,10953.234,2511.905,11898.066
11.122711,-219,2084,-232,92,102,-116,765.370,10938.505,2536.453,11906.517
11.142700,-252,2035,-270,99,99,-115,764.839,10922.655,2559.945,11916.071,183,-91,-79
11.162719,-234,2003,-313,108,88,-116,762.399,10905.797,2583.023,11926.682
11.182708,-256,2022,-297,117,91,-102,758.083,10889.531,2603.430,11937.379
11.202698,-261,2001,-291,100,86,-81,754.232,10877.030,2621.331,11945.100
11.222717,-258,2007,-241,72,72,-75,750.569,10869.867,2637.744,11948.237
11.242706,-257,1965,-233,26,80,-66,748.541,10868.712,2653.696,11945.883,179,-85,-89
11.262726,-277,1985,-252,-20,80,-73,749.441,10871.504,2669.020,11939.871
11.282715,-255,1964,-258,-45,61,-76,752.294,10876.956,2683.332,11931.514
11.302734,-279,1963,-197,-68,56,-78,755.361,10885.682,2695.468,11920.622
11.322723,-313,1983,-215,-91,47,-69,759.474,10897.732,2708.095,11906.481
11.342743,-283,2014,-168,-112,57,-81,765.725,10910.646,2721.889,11891.098,178,-93,-83
11.362732,-301,1967,-167,-123,52,-89,773.538,10922.943,2735.910,11876.076
11.382751,-309,2003,-101,-110,43,-98,781.799,10931.731,2749.533,11864.297
11.402740,-316,2010,-148,-78,39,-94,786.910,10937.850,2762.756,11855.245
11.422729,-366,1999,-145,-57,50,-71,787.889,10941.415,2773.787,11849.312
11.442749,-361,1994,-183,-28,52,-47,785.159,10941.099,2783.224,11847.572,175,-87,-87
11.462738,-357,2019,-159,13,53,-30,776.775,10933.461,2790.648,11853.429
11.482727,-324,1995,-142,86,62,2,761.962,10919.491,2794.908,11866.257
11.502746,-346,2056,-190,139,57,34,740.936,10900.349,2794.727,11885.215
11.522735,-305,2076,-174,187,44,70,718.128,10876.409,2792.225,11909.111,175,-87,-87,40253
11.542755,-294,2051,-159,220,41,77,693.229,10851.522,2785.399,11934.860,173,-81,-81
11.562744,-296,2072,-174,224,42,113,660.081,10828.975,2773.155,11960.044
11.582763,-284,2071,-262,216,55,167,623.414,10807.385,2759.343,11984.709
11.602752,-313,2051,-246,218,49,167,591.917,10781.242,2749.176,12012.157
11.622772,-251,2042,-257,249,55,117,567.504,10750.531,2744.803,12041.823
11.642761,-236,2003,-287,268,31,61,547.788,10716.582,2741.352,12073.741,173,-81,-86
11.662842,-235,2036,-283,280,17,55,525.293,10682.715,2735.878,12105.952
11.682770,-245,2043,-251,276,23,83,502.836,10649.858,2728.279,12137.529
11.702759,-247,2052,-303,273,11,77,483.737,10618.289,2721.995,12167.338
11.722778,-233,1988,-349,255,11,55,467.499,10586.883,2716.438,12196.546
11.742798,-270,1979,-367,251,3,46,451.859,10553.901,2710.717,12226.956,170,-71,-89
11.762787,-223,2022,-338,268,-1,46,436.308,10519.788,2704.298,12258.299
11.782776,-157,2041,-368,265,-10,50,422.336,10488.146,2695.623,12287.777
11.802795,-196,2035,-392,239,-32,51,409.208,10461.918,2681.509,12313.642
11.822784,-195,2090,-342,197,-41,79,396.383,10440.412,2662.231,12336.475
11.842804,-238,2076,-366,164,-59,99,386.549,10424.155,2641.246,12355.032,177,-92,-98
11.862793,-215,2039,-423,127,-75,80,381.905,10411.161,2623.106,12369.989
11.882812,-277,2044,-368,94,-69,55,378.019,10400.002,2612.116,12381.815
11.902801,-321,2098,-343,77,-32,20,376.108,10392.526,2610.665,12388.454
11.922821,-311,2037,-421,45,18,-20,373.331,10388.862,2617.202,12390.233
11.942810,-272,2067,-432,4,58,-26,364.031,10390.334,2629.425,12386.686,177,-95,-98
11.962829,-314,2016,-391,-23,118,-13,349.840,10393.788,2646.688,12380.519
11.982818,-275,2001,-413,-27,155,-15,332.344,10397.064,2669.022,12373.454
12.002807,-244,2022,-363,-22,180,-11,310.119,10399.781,2692.323,12366.698
12.022827,-188,2053,-371,-13,193,3,284.576,10402.397,2713.282,12360.529,177,-95,-98,40216
12.042816,-171,2073,-372,-13,186,29,255.072,10407.227,2731.493,12353.094,183,-100,-109
12.062835,-169,2062,-405,-27,195,59,223.699,10414.530,2748.011,12343.881
12.082824,-198,2091,-401,-40,193,62,197.752,10419.617,2764.335,12336.383
12.102844,-170,2059,-410,-22,173,33,174.952,10420.979,2780.755,12331.886
12.122833,-158,2072,-388,2,161,19,151.453,10419.570,2796.231,12329.889
12.142822,-141,2063,-400,28,152,23,130.259,10416.467,2811.202,12329.348,196,-90,-117
12.162842,-168,2032,-432,26,130,3,116.653,10411.587,2825.465,12330.345
12.182861,-187,2083,-424,38,110,-26,105.741,10404.462,2839.627,12333.204
12.202850,-129,2100,-371,50,99,-24,91.671,10398.671,2851.135,12335.546
12.222839,-220,2168,-316,34,95,3,76.707,10397.638,2859.851,12334.501
12.242859,-145,2083,-347,-2,96,22,62.860,10401.897,2867.429,12329.229,184,-85,-110
12.262848,-182,2071,-357,-37,96,18,50.460,10406.826,2876.272,12323.065
12.282837,-136,2022,-374,-31,96,4,39.923,10408.100,2884.227,12320.167
12.302856,-162,2060,-394,9,68,-6,30.269,10404.725,2889.975,12321.698
12.322876,-141,2045,-407,34,56,0,21.549,10399.073,2895.331,12325.230
12.342895,-177,2077,-439,47,46,-15,14.677,10392.632,2902.517,12328.983,192,-96,-109
12.362854,-182,2096,-371,42,53,-33,9.529,10387.970,2911.502,12330.798
12.382873,-195,2072,-347,17,60,-31,3.390,10386.432,2920.498,12329.970
12.402893,-204,2078,-399,4,75,-20,-5.873,10385.126,2930.671,12328.655
12.422851,-222,2114,-405,14,86,-18,-17.550,10382.026,2943.655,12328.161
12.442871,-161,2115,-442,22,110,-17,-31.789,10378.798,2957.925,12327.435,176,-91,-104
12.462860,-141,2079,-423,22,124,-11,-46.489,10375.951,2971.990,12326.402
12.482879,-151,2123,-432,13,119,0,-63.216,10375.372,2984.747,12323.732
12.502899,-151,2097,-443,1,125,7,-76.095,10376.582,2998.301,12319.350
12.522888,-135,2075,-455,-22,107,-23,-85.372,10380.704,3014.703,12311.811,176,-91,-104,40257
12.542877,-133,2077,-381,-59,113,-38,-92.218,10389.560,3031.793,12300.089,184,-92,-107
12.562896,-161,2029,-412,-92,109,-42,-97.232,10400.153,3047.726,12287.154
12.582885,-164,2059,-439,-93,99,-44,-101.801,10410.948,3062.795,12274.222
12.602905,-136,2075,-436,-97,91,-43,-104.372,10422.788,3077.454,12260.477
12.622894,-163,2050,-409,-115,85,-45,-107.958,10437.821,3093.816,12243.528
12.642883,-163,2098,-397,-140,103,-48,-108.427,10457.308,3110.418,12222.670,190,-89,-102
12.662903,-161,2093,-373,-182,100,-55,-107.542,10482.823,3126.077,12196.800
12.682892,-156,2090,-343,-232,94,-49,-103.475,10516.275,3140.342,12164.330
12.702911,-187,2094,-318,-298,76,-57,-97.425,10558.486,3154.204,12124.162
12.722931,-180,2100,-376,-367,79,-49,-86.810,10608.289,3167.969,12077.088
12.742920,-199,2023,-258,-421,65,-67,-72.570,10661.933,3182.875,12025.916,179,-99,-103
12.762909,-175,2058,-221,-443,63,-81,-55.734,10718.141,3197.595,11972.015
12.782928,-170,2036,-135,-466,58,-74,-39.538,10775.641,3208.856,11917.326
12.802917,-201,2026,-188,-472,35,-57,-22.993,10834.746,3216.259,11861.655
12.822937,-198,2043,-119,-482,23,-45,-5.266,10894.054,3221.517,11805.796
12.842926,-194,2017,-142,-484,22,-43,13.165,10952.079,3225.277,11750.950,170,-99,-96
12.862945,-203,2011,-128,-470,3,-42,30.319,11009.234,3225.524,11697.319
12.883026,-171,2028,-91,-457,-6,-19,45.759,11064.271,3222.390,11646.091
12.902923,-159,2025,-74,-440,-21,-6,59.854,11118.496,3217.164,11595.721
12.922943,-178,2040,-80,-431,-32,5,73.981,11171.102,3209.632,11547.065
12.942932,-231,2056,16,-412,-42,14,86.466,11221.102,3199.963,11501.089,188,-77,-99
12.962951,-272,2056,34,-391,-35,29,95.809,11266.184,3190.911,11459.382
12.982940,-239,2062,9,-337,-19,26,105.659,11302.814,3185.521,11424.671
13.002960,-192,2071,31,-274,-18,-5,114.921,11332.570,3184.924,11395.233
13.022949,-218,2136,23,-235,-10,-21,120.079,11360.830,3187.758,11366.210,188,-77,-99,40210
13.042938,-226,2114,20,-232,35,-19,120.789,11388.698,3195.586,11336.077,177,-71,-73
13.062958,-217,2056,36,-236,81,-20,119.028,11414.587,3205.753,11307.149
13.082977,-245,2055,85,-210,91,-23,114.427,11437.721,3218.313,11280.219
13.102966,-260,2075,52,-189,109,-18,107.902,11457.678,3232.233,11256.024
13.122986,-215,2111,42,-159,111,-30,104.644,11473.516,3248.276,11235.284
13.142975,-252,2128,84,-139,90,-61,101.548,11487.382,3264.314,11216.480,179,-87,-59
13.162964,-214,2108,55,-126,87,-47,94.303,11502.183,3276.112,11197.920
13.182983,-203,2061,43,-131,90,-2,79.305,11520.922,3281.478,11177.182
13.202972,-198,2077,99,-146,109,62,57.472,11540.709,3279.945,11157.335
13.222992,-175,2043,120,-129,107,110,32.398,11559.015,3274.395,11140.103
13.242981,-168,2038,46,-103,103,130,3.862,11573.877,3268.978,11126.301,170,-71,-48
13.262970,-175,2025,97,-74,118,134,-27.186,11585.863,3263.822,11115.302
13.282989,-134,2028,113,-54,120,135,-57.738,11594.979,3260.991,11106.507
13.302978,-136,2050,64,-34,122,114,-87.471,11600.234,3261.265,11100.743
13.323028,-136,2019,107,-2,129,89,-117.271,11600.880,3264.852,11098.739
13.342987,-136,2017,53,30,143,86,-150.442,11598.114,3269.600,11099.832,183,-72,-42
13.362976,-146,2022,72,60,148,86,-184.544,11593.089,3277.777,11102.155
13.382995,-137,2111,90,66,181,68,-219.720,11586.826,3291.858,11103.886
13.403015,-118,2104,65,64,209,47,-256.179,11580.924,3310.561,11103.702
13.423004,-81,2126,106,53,229,39,-294.216,11577.633,3332.819,11099.531
13.442993,-97,2101,83,25,247,35,-330.421,11576.929,3357.528,11091.797,182,-71,-32
13.463012,-140,2063,79,-6,250,12,-362.379,11576.993,3387.225,11081.698
13.483001,-103,2113,99,-22,259,-25,-391.489,11578.394,3421.795,11068.617
13.503021,-98,2042,118,-44,267,-50,-417.909,11581.370,3458.689,11053.060
13.523010,-99,2055,83,-57,264,-73,-441.647,11584.014,3498.523,11036.817,182,-71,-32,40238
13.543030,-125,2060,65,-58,268,-93,-465.273,11585.362,3542.380,11020.431,182,-71,-25
13.563019,-137,2027,82,-55,283,-107,-488.809,11585.727,3589.942,11003.623
13.583038,-187,2022,122,-51,296,-126,-511.338,11583.532,3641.574,10987.934
13.603027,-163,2047,81,-35,314,-155,-532.836,11577.588,3700.407,10973.512
13.623047,-209,2092,156,-15,332,-188,-555.102,11569.458,3763.770,10959.424
13.643036,-249,2144,159,-12,363,-196,-581.294,11562.437,3828.491,10943.045,189,-73,-36
13.663055,-215,2087,190,-25,389,-172,-613.795,11557.702,3893.233,10923.413
13.683044,-191,1994,60,-40,419,-144,-652.372,11553.112,3956.825,10903.164
13.703033,-154,2014,100,-23,431,-119,-697.835,11543.782,4018.765,10887.565
13.723053,-189,2020,59,38,447,-100,-749.212,11528.707,4078.180,10878.027
13.743072,-184,2002,75,92,451,-68,-805.670,11507.559,4130.876,10876.500,179,-68,-27
13.763031,-149,1978,98,154,421,-34,-864.320,11483.073,4176.296,10880.531
13.783050,-138,1975,25,190,400,-4,-925.936,11457.094,4213.571,10888.475
13.803070,-142,1978,49,214,376,44,-988.454,11430.634,4242.819,10899.426
13.823059,-134,2005,35,225,344,70,-1051.860,11403.015,4267.736,10912.685
13.843048,-102,1973,71,242,335,89,-1115.572,11375.171,4289.042,10927.054,171,-67,-24
13.863067,-152,1999,49,242,307,97,-1178.771,11349.289,4307.138,10940.207
13.883056,-129,2040,91,225,309,112,-1239.986,11327.385,4323.465,10949.697
13.903076,-146,2098,83,178,296,117,-1299.865,11313.565,4339.868,10950.552
13.923065,-112,2118,90,106,302,130,-1355.120,11307.737,4358.407,10942.506
13.943084,-109,2131,100,33,302,106,-1403.206,11310.266,4380.554,10924.975,176,-79,-19
13.963073,-124,2142,136,-56,300,82,-1446.183,11321.751,4405.876,10897.256
13.983093,-129,2107,126,-134,305,72,-1486.323,11339.430,4433.283,10862.302
14.003082,-111,2124,162,-173,309,68,-1525.006,11357.944,4461.433,10826.011
14.023102,-112,2092,191,-172,301,64,-1564.168,11375.074,4488.263,10791.293,176,-79,-19,40214
14.043091,-80,2111,151,-152,298,77,-1605.271,11389.790,4511.889,10759.837,173,-67,-19
14.063080,-63,2044,135,-122,289,91,-1648.458,11401.750,4533.129,10731.675
14.083099,-97,2042,156,-94,286,97,-1695.080,11409.569,4552.563,10707.850
14.103149,-38,2023,186,-49,295,110,-1745.504,11412.269,4569.875,10689.481
14.123108,-47,2058,155,-2,288,124,-1800.457,11410.552,4583.534,10676.343
14.143097,6,2107,135,44,291,143,-1858.509,11405.519,4595.714,10666.532,169,-77,-31
14.163116,-15,2066,127,62,296,148,-1916.257,11398.211,4610.536,10657.726
14.183105,-54,2095,142,69,302,117,-1970.016,11387.315,4631.383,10650.531
14.203094,-28,2083,149,80,315,66,-2018.944,11371.140,4660.694,10645.863
14.223114,2,2099,110,99,330,3,-2065.093,11351.607,4697.369,10641.737
14.243103,-16,2016,103,95,349,-32,-2111.307,11330.686,4738.691,10636.643,175,-66,-20
14.263122,-19,2070,118,99,370,-40,-2160.416,11306.540,4782.769,10632.747
14.283142,-18,2063,71,128,384,-51,-2211.582,11277.132,4828.988,10632.568
14.303100,-16,2087,75,167,397,-64,-2264.542,11243.069,4875.307,10636.356
14.323211,41,2047,46,194,406,-65,-2318.536,11207.131,4920.551,10641.814
14.343139,4,2065,71,209,390,-60,-2371.381,11170.314,4963.999,10648.698,176,-62,-19
14.363128,25,2058,42,216,382,-67,-2422.626,11131.471,5005.673,10658.325
14.383148,-12,2056,12,240,366,-63,-2472.705,11089.219,5045.371,10672.142
14.403137,-36,2189,-5,267,347,-82,-2518.840,11044.045,5082.900,10690.372
14.423126,-15,2172,23,278,325,-85,-2562.401,11001.370,5119.689,10706.454
14.443146,12,2125,-1,247,313,-89,-2602.892,10962.849,5155.251,10719.128,183,-70,-17
14.463135,-5,2118,-54,216,291,-83,-2640.312,10926.826,5188.654,10730.635
14.483154,-40,2126,-75,205,278,-80,-2677.928,10891.742,5219.051,10742.234
14.503143,-24,2108,-73,205,262,-66,-2714.143,10855.380,5247.883,10755.896
14.523163,-52,2103,-115,224,247,-74,-2749.964,10816.183,5274.934,10773.039,183,-70,-17,40200
14.543152,-37,2109,-64,254,243,-73,-2787.099,10772.661,5300.143,10794.710,175,-71,-25
14.563171,-45,2095,-121,296,234,-71,-2826.910,10725.203,5323.243,10820.218
14.583160,-46,2141,-83,333,238,-64,-2871.370,10673.415,5344.991,10848.961
14.603180,-73,2187,-151,370,251,-51,-2919.059,10618.312,5366.251,10879.767
14.623169,-54,2136,-126,385,258,-49,-2968.375,10560.621,5387.987,10911.786
14.643188,-76,2123,-119,401,269,-51,-3018.739,10501.491,5412.182,10943.017,171,-74,-17
14.663177,-103,2097,-175,398,284,-62,-3068.121,10442.027,5439.567,10972.568
14.683197,-65,2127,-255,384,300,-75,-3117.823,10383.647,5468.467,10999.561
14.703186,-96,2115,-186,368,315,-64,-3170.316,10326.089,5498.782,11023.602
14.723175,-72,2088,-255,366,334,-57,-3225.033,10269.966,5529.612,11044.717
14.743194,-110,2089,-230,355,351,-46,-3279.578,10215.265,5563.354,11062.425,170,-83,-32
14.763183,-34,2176,-301,315,359,-60,-3329.244,10165.133,5600.623,11074.957
14.783172,-38,2117,-257,260,360,-75,-3374.142,10120.650,5640.322,11081.959
14.803192,-19,2063,-287,207,349,-87,-3413.940,10082.614,5680.324,11084.009
14.823181,-25,2020,-308,161,332,-82,-3452.154,10047.116,5718.961,11084.539
14.843200,-84,2075,-237,156,324,-73,-3491.116,10012.602,5753.929,11085.469,165,-73,-45
14.863189,-36,2073,-276,159,311,-51,-3530.892,9980.514,5786.420,11084.896
14.883209,-53,2070,-267,145,310,-30,-3573.176,9953.707,5816.833,11079.531
14.903229,-63,2059,-287,108,312,0,-3615.495,9929.787,5846.284,11071.763
14.923218,-36,2067,-364,100,310,4,-3656.917,9904.607,5876.986,11064.456
14.943207,-63,2078,-329,112,312,-9,-3698.844,9875.736,5907.644,11059.998,162,-86,-40
14.963226,-66,2090,-290,135,312,-16,-3741.080,9846.040,5938.628,11055.675
14.983215,-73,2058,-291,132,313,-18,-3782.440,9819.661,5970.113,11048.103
15.003204,-78,2048,-320,90,317,-8,-3825.135,9798.217,6002.697,11034.778
15.023224,-51,2108,-323,61,339,14,-3869.300,9780.774,6037.633,11015.779,162,-86,-40,40216
15.043213,-34,2098,-285,20,363,23,-3913.975,9766.092,6077.624,10991.003,159,-79,-53
15.063232,-99,2082,-275,-16,395,9,-3954.740,9751.425,6128.308,10961.250
15.083221,-97,2067,-246,-59,439,-50,-3987.809,9737.455,6190.508,10926.683
15.103241,-32,2054,-232,-114,448,-106,-4013.603,9726.142,6258.293,10888.634
15.123230,0,1983,-237,-144,431,-125,-4035.669,9718.415,6324.722,10848.922
15.143219,-26,2049,-219,-165,418,-119,-4055.470,9713.452,6385.941,10810.050,156,-85,-57
15.163238,-85,2087,-229,-168,385,-105,-4070.776,9709.672,6441.135,10774.889
15.183258,-44,2062,-219,-155,327,-108,-4081.492,9705.714,6492.614,10743.460
15.203247,-111,2016,-209,-146,308,-118,-4091.650,9698.702,6539.859,10717.241
15.223266,-102,2001,-159,-100,276,-115,-4105.580,9685.971,6580.469,10698.553
15.243255,-112,2092,-215,-29,250,-100,-4124.313,9669.034,6617.206,10683.999,158,-83,-48
15.263244,-159,2114,-232,2,267,-87,-4147.251,9649.959,6653.346,10669.911
15.283264,-117,2106,-206,16,282,-74,-4173.542,9629.132,6693.388,10653.419
15.303253,-173,2132,-247,17,322,-82,-4202.925,9602.779,6738.181,10637.406
15.323395,-163,2152,-236,41,360,-106,-4233.679,9571.919,6790.804,10619.545
15.343261,-131,2142,-235,34,408,-139,-4263.733,9537.476,6854.879,10597.320,149,-80,-45
15.363281,-230,2092,-324,9,459,-187,-4291.965,9496.679,6932.498,10572.040
15.383270,-229,2044,-294,6,522,-256,-4318.969,9446.799,7022.592,10546.237
15.403259,-188,2096,-269,20,581,-316,-4348.745,9390.572,7122.014,10517.505
15.423279,-166,2137,-372,16,644,-336,-4380.149,9333.437,7227.947,10483.008
15.443268,-156,2034,-303,-7,683,-337,-4415.076,9276.365,7333.957,10445.318,150,-86,-44
15.463287,-213,1992,-242,0,693,-309,-4454.375,9219.461,7438.251,10405.187
15.483276,-212,2028,-238,4,707,-295,-4492.812,9161.743,7543.328,10363.915
15.503296,-262,2125,-221,-10,700,-311,-4524.019,9104.642,7651.784,10321.064
15.523285,-250,2025,-305,-54,697,-351,-4543.709,9049.524,7762.910,10277.815,150,-86,-44,40236
15.543304,-306,1970,-252,-83,647,-391,-4558.007,8992.804,7871.820,10238.355,132,-92,-36
15.563293,-343,2079,-289,-57,626,-400,-4573.878,8934.008,7974.675,10203.094
15.583282,-335,2156,-230,-38,600,-374,-4590.670,8881.901,8072.579,10163.980
15.603302,-382,2060,-136,-84,587,-321,-4603.554,8843.127,8164.815,10118.183
15.623291,-404,1986,-239,-161,544,-277,-4609.324,8816.249,8253.541,10066.894
15.643310,-407,2010,-152,-220,510,-253,-4610.768,8797.975,8335.398,10014.639,129,-84,-19
15.663299,-398,2020,-65,-253,466,-210,-4609.423,8790.834,8412.147,9957.191
15.683319,-418,2017,-54,-316,435,-161,-4604.123,8795.342,8483.610,9894.837
15.703308,-423,1994,-1,-372,394,-125,-4594.008,8808.900,8549.977,9830.142
15.723297,-384,2056,55,-409,353,-100,-4577.879,8830.950,8611.073,9764.333
15.743316,-338,2013,97,-450,301,-74,-4556.442,8863.836,8666.208,9695.541,115,-92,-9
15.763336,-373,1949,118,-517,261,-35,-4528.758,8907.390,8715.552,9624.102
15.783325,-342,1928,143,-556,206,-4,-4496.832,8957.697,8755.583,9555.802
15.803344,-379,1948,83,-549,140,33,-4464.763,9011.907,8783.209,9494.319
15.823333,-437,1959,319,-512,60,68,-4434.522,9065.359,8802.425,9439.651
15.843353,-385,2035,229,-468,38,81,-4404.355,9119.977,8817.276,9387.158,108,-92,0
15.863342,-401,1998,121,-480,36,101,-4373.998,9179.309,8831.539,9329.939
15.883331,-431,1910,212,-507,33,117,-4348.298,9232.667,8847.121,9274.376
15.903320,-321,1935,198,-436,70,93,-4331.400,9272.545,8860.619,9229.503
15.923340,-284,1995,247,-317,76,86,-4329.309,9304.677,8866.593,9192.335
15.943359,-422,1982,261,-223,83,135,-4338.018,9333.245,8871.371,9154.580,101,-97,17
15.963348,-369,1965,220,-193,134,139,-4352.045,9348.321,8885.036,9119.219
15.983368,-414,1876,175,-118,202,55,-4375.701,9339.341,8906.826,9095.813
16.003357,-417,1882,170,44,255,-29,-4415.030,9302.589,8931.380,9090.392
16.023346,-377,2007,39,249,302,-98,-4468.879,9239.466,8957.254,9102.989,101,-97,17,40226
16.043365,-378,2082,113,416,325,-155,-4534.023,9163.227,8981.385,9124.037,105,-100,34
16.063354,-297,2136,-5,477,356,-148,-4604.290,9087.588,9003.186,9142.993
16.083374,-426,2066,-25,461,368,-111,-4678.713,9015.485,9023.010,9157.041
16.103363,-332,2131,-154,459,382,-83,-4754.050,8942.305,9042.360,9170.896
16.123382,-380,2128,-93,465,383,-95,-4828.974,8865.378,9061.304,9187.724
16.143371,-276,2231,-163,492,364,-115,-4902.114,8788.616,9078.549,9205.698,106,-90,46
16.163391,-352,2181,-174,474,341,-100,-4973.102,8718.180,9091.375,9221.926
16.183380,-388,2184,-197,446,315,-73,-5038.580,8652.685,9101.432,9238.134
16.203369,-389,2170,-197,417,287,-73,-5099.993,8589.746,9112.140,9252.602
16.223388,-455,2256,-74,389,295,-74,-5157.772,8529.390,9127.404,9261.362
16.243377,-397,2328,-159,323,306,-89,-5208.081,8476.303,9149.275,9260.365,107,-93,45
16.263397,-387,2161,-265,229,329,-78,-5254.726,8428.900,9178.212,9248.641
16.283386,-425,2083,-138,178,368,-78,-5302.968,8380.971,9210.543,9232.507
16.303406,-397,2099,-210,192,400,-71,-5357.867,8332.602,9242.495,9212.639
16.323456,-372,2108,-115,196,444,-33,-5419.447,8286.104,9274.023,9186.839
16.343384,-401,2091,-140,185,477,3,-5483.365,8243.142,9307.971,9153.165,106,-95,33
16.363403,-339,2097,-143,161,501,33,-5549.969,8201.867,9343.160,9114.164
16.383423,-299,2064,-124,143,513,46,-5617.450,8163.475,9376.522,9072.938
16.403412,-276,2032,-138,139,508,70,-5686.169,8128.727,9406.312,9030.394
16.423431,-314,2031,-172,134,495,99,-5757.262,8097.577,9433.442,8984.920
16.443420,-315,2091,-87,128,511,126,-5828.526,8063.712,9463.616,8937.574,105,-98,29
16.463409,-301,2129,-109,125,540,92,-5895.799,8020.223,9503.890,8889.717
16.483429,-260,2155,30,115,576,5,-5954.345,7971.367,9555.738,8838.912
16.503418,-229,2137,-42,55,607,-52,-6005.958,7925.172,9615.298,8780.751
16.523437,-322,2028,55,-4,617,-54,-6053.320,7881.834,9676.914,8719.333,105,-98,29,40251
16.543487,-304,1942,-24,-21,607,-60,-6099.620,7835.524,9737.195,8661.505,102,-98,32
16.563446,-296,2036,-70,19,597,-81,-6149.013,7782.323,9792.203,8612.391
16.583435,-298,2064,9,86,580,-93,-6202.934,7724.229,9841.605,8569.604
16.603454,-329,2078,-66,130,561,-91,-6256.681,7665.236,9889.115,8528.712
16.623443,-311,2051,30,135,550,-102,-6305.663,7603.438,9937.485,8491.652
16.643432,-314,1981,-94,134,533,-137,-6352.177,7539.174,9984.551,8459.010,101,-92,42
16.663452,-292,2005,-7,156,513,-155,-6401.320,7472.219,10028.042,8429.878
16.683441,-242,2044,-78,196,503,-145,-6452.685,7405.642,10066.172,8403.983
16.703460,-290,2080,-72,218,478,-126,-6503.578,7345.103,10097.373,8380.419
16.723449,-393,2066,-32,198,417,-90,-6550.210,7292.176,10123.532,8358.735
16.743469,-379,2037,-43,178,380,-81,-6589.909,7243.658,10148.846,8338.997,106,-85,51
16.763458,-391,1968,-106,148,346,-92,-6624.283,7194.662,10174.035,8323.469
16.783447,-468,2006,-160,154,315,-119,-6659.115,7142.818,10196.031,8313.405
16.803467,-489,1939,-109,194,312,-122,-6697.521,7087.915,10217.149,8303.611
16.823456,-534,1927,-100,213,337,-122,-6740.089,7030.041,10239.457,8290.879
16.843475,-504,1917,-117,227,369,-108,-6787.264,6970.554,10263.211,8273.232,111,-102,56
16.863464,-443,1950,-140,227,402,-95,-6836.874,6911.592,10289.690,8248.924
16.883453,-456,2001,-77,207,437,-74,-6886.779,6853.805,10319.233,8218.666
16.903473,-455,2000,-101,161,464,-68,-6933.858,6797.866,10353.323,8182.589
16.923492,-434,2005,-71,135,494,-72,-6976.188,6743.011,10393.247,8141.280
16.943481,-415,1986,-152,81,514,-87,-7012.176,6688.249,10438.926,8096.972,104,-104,44
16.963470,-405,1989,-83,44,514,-112,-7042.885,6632.960,10487.287,8053.188
16.983490,-489,1985,-112,22,507,-138,-7070.502,6576.268,10536.673,8010.907
17.003479,-414,1958,-134,26,495,-156,-7097.547,6516.255,10583.591,7974.100
17.023498,-509,1949,-153,66,464,-174,-7129.033,6452.907,10622.998,7945.075,104,-104,44,40222
17.043487,-501,1990,-161,141,439,-165,-7172.393,6383.699,10651.008,7924.432,100,-89,54
17.063507,-601,2014,-202,262,439,-149,-7227.104,6308.856,10668.582,7911.010
17.083496,-517,2075,-347,345,414,-133,-7288.224,6232.392,10682.135,7897.247
17.103515,-577,2037,-332,360,424,-102,-7354.596,6155.664,10692.090,7882.407
17.123504,-583,2036,-457,381,434,-89,-7424.416,6075.277,10699.274,7869.562
17.143524,-618,2131,-381,424,434,-94,-7499.352,5989.378,10703.470,7858.641,100,-103,59
17.163513,-603,2146,-510,468,447,-96,-7575.498,5905.744,10705.343,7846.341
17.183502,-633,2128,-457,446,444,-57,-7653.568,5831.094,10706.303,7825.070
17.203521,-669,2085,-519,405,458,14,-7735.773,5764.176,10706.271,7793.797
17.223510,-566,2132,-511,384,485,81,-7821.284,5704.246,10707.262,7751.068
17.243530,-540,2136,-453,357,518,145,-7908.396,5650.963,10709.944,7697.819,94,-106,63
17.263519,-432,2106,-484,304,546,189,-7991.793,5606.445,10714.216,7638.063
17.283508,-371,2090,-420,255,523,216,-8068.920,5568.206,10718.755,7578.347
17.303528,-464,2088,-523,225,482,209,-8141.007,5533.603,10723.165,7520.133
17.323547,-423,2102,-522,212,464,212,-8214.579,5498.266,10724.894,7463.367
17.343536,-445,2138,-451,236,459,214,-8290.453,5461.528,10726.071,7404.520,99,-104,53
17.363525,-431,2107,-426,234,474,220,-8363.386,5424.824,10730.222,7343.217
17.383545,-323,2140,-504,198,492,209,-8432.521,5386.779,10737.817,7280.791
17.403534,-381,2114,-488,178,505,185,-8498.439,5345.088,10750.050,7216.538
17.423553,-382,2144,-480,161,534,161,-8561.895,5302.203,10766.545,7148.253
17.443573,-380,2079,-462,137,568,165,-8625.766,5257.855,10786.723,7073.411,110,-98,50
17.463531,-349,2072,-501,126,606,174,-8692.234,5211.157,10809.254,6991.735
17.483551,-346,2164,-487,121,655,189,-8758.735,5160.271,10837.485,6902.210
17.503570,-417,2179,-520,82,716,178,-8818.915,5102.007,10877.673,6804.992
17.523559,-381,2200,-459,11,789,125,-8868.835,5038.747,10930.754,6701.404,110,-98,50,40216
17.543548,-364,2152,-458,-74,826,84,-8909.183,4974.836,10995.987,6587.955,119,-93,52
17.563568,-362,2146,-417,-160,869,83,-8941.716,4914.590,11070.281,6463.499
17.583557,-422,2166,-349,-238,915,108,-8969.404,4856.537,11150.711,6329.370
17.603576,-388,2050,-395,-292,947,123,-8991.647,4799.096,11238.045,6185.525
17.623565,-376,2159,-397,-347,988,123,-9008.936,4741.779,11329.670,6035.612
17.643585,-319,2102,-333,-394,1012,123,-9019.565,4687.201,11425.482,5879.743,125,-92,53
17.663604,-225,2158,-283,-451,1011,141,-9023.365,4639.749,11523.729,5717.579
17.683594,-261,2077,-158,-507,1012,174,-9019.778,4597.136,11623.981,5552.337
17.703583,-273,2090,-172,-553,989,174,-9008.953,4556.351,11725.663,5387.272
17.723572,-270,1995,-100,-584,968,159,-8994.874,4513.115,11826.819,5223.582
17.743591,-311,1946,-119,-574,978,145,-8982.554,4467.247,11924.828,5058.787,120,-87,63
17.763641,-231,2059,33,-545,1000,150,-8973.050,4418.550,12019.498,4891.614
17.783600,-234,2068,-1,-527,1010,154,-8964.872,4364.878,12111.271,4725.615
17.803619,-266,2028,64,-508,1011,128,-8954.532,4305.062,12201.683,4564.774
17.823608,-238,1981,74,-490,999,75,-8942.073,4236.884,12290.972,4410.849
17.843597,-244,1997,165,-472,984,11,-8926.716,4160.172,12379.229,4265.772,140,-96,84
17.863617,-229,2009,225,-447,967,-64,-8906.774,4076.913,12466.043,4132.959
17.883606,-245,2020,208,-438,918,-129,-8881.053,3992.319,12551.340,4010.932
17.903625,-273,1964,278,-441,870,-159,-8852.378,3910.818,12632.767,3897.376
17.923614,-296,1857,283,-436,810,-157,-8824.773,3834.576,12707.434,3791.562
17.943603,-248,1890,275,-393,750,-146,-8802.191,3760.951,12773.953,3692.998,149,-87,118
17.963623,-287,1954,351,-337,709,-142,-8785.231,3689.701,12831.812,3603.589
17.983642,-364,1982,336,-276,656,-142,-8770.490,3621.620,12884.043,3521.255
18.003631,-411,1990,276,-265,607,-134,-8752.751,3559.035,12934.488,3443.409
18.023620,-375,2013,365,-274,571,-118,-8732.580,3503.685,12983.167,3367.350,149,-87,118,40222
18.043640,-369,1948,393,-282,538,-75,-8715.158,3458.700,13027.910,3285.181,169,-93,156
18.063629,-354,1949,379,-274,540,11,-8704.977,3423.180,13067.393,3191.221
18.083648,-393,1959,427,-241,590,104,-8704.749,3390.015,13101.195,3086.951
18.103637,-334,2022,428,-191,644,141,-8710.671,3353.503,13131.884,2977.798
18.123626,-267,1959,441,-159,669,148,-8720.099,3314.215,13161.065,2863.155
18.143646,-314,1970,460,-146,705,154,-8734.349,3273.717,13187.017,2744.438,162,-105,181
18.163635,-240,1909,396,-105,728,167,-8757.242,3228.224,13207.689,2623.291
18.183655,-192,1916,372,-40,759,161,-8790.711,3176.221,13221.430,2502.844
18.203644,-158,1916,339,38,786,145,-8834.034,3118.725,13228.289,2383.530
18.223663,-158,1975,490,99,789,132,-8882.977,3057.019,13230.746,2264.987
18.243652,-137,2020,373,134,802,117,-8933.435,2991.172,13231.341,2147.943,176,-93,192
18.263641,-98,1982,315,141,807,93,-8983.696,2920.284,13231.486,2031.834
18.283661,-172,2030,346,146,815,61,-9033.172,2843.877,13231.099,1920.318
18.303680,-111,2043,313,154,806,19,-9080.595,2760.490,13231.104,1815.434
18.323700,-101,2037,441,159,792,-38,-9127.280,2670.567,13230.739,1715.751
18.343658,-123,1976,352,161,791,-78,-9173.645,2577.725,13229.251,1619.237,197,-108,197
18.363678,-119,1998,257,170,792,-93,-9222.338,2481.541,13225.505,1520.490
18.383667,-181,2052,375,190,830,-88,-9273.591,2383.932,13218.882,1419.141
18.403686,-98,2037,315,220,837,-86,-9328.364,2282.227,13208.649,1319.128
18.423675,-115,2034,235,251,828,-116,-9384.727,2174.955,13195.898,1224.821
18.443695,-113,2054,238,266,814,-159,-9442.820,2063.255,13180.244,1136.977,215,-95,210
18.463684,-119,2098,222,290,789,-194,-9500.922,1952.058,13162.324,1053.856
18.483703,-206,2206,219,293,777,-193,-9557.195,1847.612,13142.741,974.752
18.503692,-134,2115,303,273,740,-165,-9612.107,1749.566,13121.757,895.166
18.523681,-201,2183,157,279,729,-130,-9665.875,1655.746,13099.586,815.865,215,-95,210,40210
18.543701,-181,2113,198,279,709,-115,-9721.821,1564.135,13074.090,737.068,227,-95,210
18.563690,-183,2120,31,313,689,-109,-9780.324,1474.303,13044.874,662.104
18.583709,-228,2062,93,333,669,-111,-9840.988,1388.016,13012.152,589.654
18.603698,-142,2119,179,349,647,-95,-9899.644,1309.715,12978.776,518.163
18.623687,-126,2144,40,331,604,-58,-9953.002,1241.089,12947.356,445.947
18.643707,-164,2162,110,298,571,-8,-9999.616,1183.974,12919.061,373.068,235,-93,192
18.663696,-127,2223,26,246,529,44,-10035.659,1135.636,12897.354,299.295
18.683716,-224,2213,38,165,510,77,-10059.044,1092.536,12884.391,223.375
18.703705,-164,2126,80,57,503,95,-10069.299,1048.721,12881.138,145.382
18.723724,-160,2153,-5,-12,515,92,-10069.291,1004.247,12885.353,63.109
18.743713,-222,2272,22,-73,542,106,-10062.081,961.073,12894.408,-23.041,253,-95,187
18.763733,-53,2132,121,-132,537,125,-10049.547,919.591,12906.728,-113.049
18.783722,-108,2074,147,-158,542,145,-10032.745,879.620,12921.434,-205.610
18.803741,19,2083,108,-184,547,150,-10013.605,840.246,12937.092,-297.960
18.823730,-92,2106,194,-187,549,152,-9995.625,800.612,12951.090,-388.847
18.843750,18,2118,171,-168,537,139,-9980.467,759.108,12962.389,-475.320,256,-79,183
18.863739,-113,2236,184,-146,532,108,-9971.095,714.372,12968.981,-554.892
18.883758,-30,2094,215,-92,507,77,-9965.806,664.031,12972.345,-628.865
18.903747,-33,2202,235,-69,511,27,-9964.049,608.665,12972.858,-698.316
18.923736,-29,2077,295,-51,511,-11,-9962.841,549.734,12972.731,-763.732
18.943756,-91,2107,29,-58,492,-42,-9961.247,488.017,12972.387,-829.454,266,-96,179
18.963745,-109,2236,169,-58,518,-44,-9958.575,425.198,12972.174,-896.735
18.983825,-131,2258,162,-67,532,-36,-9953.798,360.949,12972.746,-966.908
19.003753,17,2074,165,-77,556,-15,-9946.738,297.302,12974.022,-1041.252
19.023773,6,2056,119,-82,561,-5,-9936.316,236.453,12976.611,-1121.037,266,-96,179,40236
19.043762,-104,2051,235,-116,576,26,-9923.723,176.467,12979.746,-1204.242,278,-91,190
19.063781,35,2087,291,-133,595,36,-9906.093,117.181,12985.606,-1290.372
19.083771,79,2099,266,-171,606,55,-9882.698,57.053,12994.656,-1379.635
19.103760,44,2035,232,-211,625,59,-9854.141,-2.557,13006.467,-1470.765
19.123779,7,1969,339,-230,616,62,-9823.896,-64.191,13018.527,-1562.156
19.143768,43,1946,290,-226,631,53,-9796.036,-128.314,13027.985,-1651.741,291,-90,189
19.163788,-33,1964,220,-196,625,26,-9774.946,-195.474,13032.025,-1736.080
19.183777,37,2032,314,-125,589,-12,-9761.469,-266.718,13030.254,-1813.977
19.203796,116,2071,310,-84,580,-54,-9751.533,-337.832,13026.009,-1884.675
19.223785,68,2062,431,-78,565,-69,-9741.509,-407.244,13021.491,-1952.780
19.243774,167,1986,344,-84,549,-70,-9732.134,-475.774,13015.974,-2019.665,293,-97,184
19.263794,20,2038,285,-51,540,-74,-9728.684,-544.872,13005.132,-2087.530
19.283783,-6,1933,317,-7,560,-73,-9734.038,-616.817,12986.798,-2155.584
19.303802,38,1852,346,70,591,-97,-9749.439,-689.258,12960.202,-2223.053
19.323883,166,2001,344,139,573,-114,-9774.838,-760.956,12925.299,-2290.324
19.343811,95,1956,392,203,568,-110,-9805.719,-827.655,12885.354,-2359.223,306,-100,188
19.363800,138,2042,243,246,562,-84,-9839.707,-887.767,12842.172,-2430.242
19.383789,43,1869,351,287,535,-36,-9874.857,-939.378,12797.007,-2505.355
19.403808,240,1964,155,310,537,6,-9914.460,-983.102,12747.719,-2582.264
19.423828,174,1908,214,346,527,36,-9962.673,-1022.126,12691.106,-2659.259
19.443817,46,2022,374,421,509,36,-10017.325,-1060.328,12628.311,-2736.801,307,-92,182
19.463806,264,2095,67,459,517,25,-10074.730,-1102.977,12562.482,-2811.180
19.483825,258,2106,77,469,511,-12,-10131.789,-1151.018,12496.153,-2881.596
19.503845,183,2164,-58,442,520,-57,-10187.679,-1205.253,12430.320,-2946.375
19.523834,184,2032,133,428,513,-92,-10245.155,-1265.359,12362.503,-3006.595,307,-92,182,40236
19.543823,192,2191,67,457,520,-143,-10303.778,-1332.369,12293.023,-3061.696,331,-102,191
19.563843,181,2254,-1,438,535,-192,-10360.604,-1403.948,12224.289,-3112.718
19.583832,131,2257,-12,411,516,-220,-10413.642,-1477.090,12158.363,-3159.732
19.603851,157,2183,50,386,494,-229,-10462.929,-1549.169,12095.949,-3201.662
19.623840,-6,2208,-52,355,459,-231,-10508.999,-1615.240,12037.493,-3238.231
19.643860,18,2177,-43,337,422,-212,-10551.904,-1674.040,11982.841,-3271.370,330,-91,169
19.663849,-6,2144,-93,322,378,-180,-10591.410,-1724.915,11931.607,-3304.375
19.683838,-60,2080,-63,290,353,-144,-10628.510,-1769.336,11883.391,-3335.368
19.703857,28,1994,-56,288,310,-121,-10664.597,-1806.777,11837.574,-3362.915
19.723877,-1,2051,-177,288,284,-98,-10700.751,-1836.266,11792.467,-3390.458
19.743866,36,2139,-247,291,251,-59,-10735.825,-1858.689,11747.936,-3421.807,331,-97,145
19.763855,-96,2071,-106,282,251,-10,-10768.650,-1875.790,11705.233,-3455.509
19.783874,-78,2112,-110,275,232,15,-10797.019,-1891.539,11665.525,-3492.482
19.803863,-83,2090,-167,243,251,36,-10818.922,-1908.476,11630.447,-3532.249
19.823852,-59,2032,-123,198,265,56,-10833.683,-1929.998,11599.624,-3576.389
19.843872,-15,1942,-164,148,299,60,-10843.084,-1955.047,11571.151,-3626.183,338,-85,136
19.863861,49,1964,-106,132,336,70,-10848.121,-1984.108,11544.411,-3680.160
19.883880,-63,2010,-114,99,358,75,-10849.903,-2018.134,11518.264,-3737.881
19.903900,33,2019,-295,84,403,73,-10847.045,-2059.620,11494.080,-3797.516
19.923889,108,2054,-297,53,443,61,-10838.061,-2106.498,11473.335,-3859.679
19.943878,5,2139,-149,-9,464,55,-10822.447,-2160.460,11456.482,-3923.199,346,-81,119
19.963867,-53,2061,-109,-55,495,39,-10800.520,-2223.133,11443.745,-3985.294
19.983886,93,2249,-238,-102,537,1,-10772.959,-2294.578,11434.797,-4044.640
20.003937,68,2273,-182,-165,558,-31,-10742.347,-2374.396,11428.344,-4097.879
20.023895,56,2190,-102,-195,547,-85,-10709.909,-2460.660,11423.804,-4144.288,346,-81,119,40251
20.043884,123,2050,-151,-215,541,-137,-10676.679,-2553.528,11419.708,-4184.940,337,-84,114
20.063904,33,2233,-182,-235,557,-175,-10641.558,-2649.629,11416.272,-4223.848
20.083923,76,2163,-225,-252,562,-184,-10604.580,-2750.082,11412.018,-4263.942
20.103912,25,2207,-208,-252,574,-194,-10566.981,-2855.260,11406.248,-4303.411
20.123901,-78,2156,-123,-273,600,-224,-10532.024,-2965.623,11395.827,-4341.901
20.143921,53,2134,-74,-225,627,-258,-10499.445,-3081.634,11381.270,-4378.049,355,-87,104
20.163910,-20,2106,-83,-218,628,-298,-10469.549,-3203.384,11362.624,-4410.566
20.183929,-39,2151,-10,-209,630,-347,-10439.532,-3330.732,11341.818,-4440.832
20.203979,-49,2109,-14,-216,647,-373,-10410.189,-3463.094,11317.530,-4470.335
20.223938,-68,2159,-76,-207,690,-389,-10380.531,-3598.932,11290.046,-4501.394
20.243927,-59,2141,-49,-208,726,-403,-10351.008,-3735.776,11260.456,-4531.906,356,-81,100
20.263916,-37,2075,-34,-210,713,-411,-10320.610,-3872.218,11231.722,-4557.936
20.283935,-88,2155,-114,-208,670,-426,-10287.116,-4009.433,11204.520,-4581.904
20.303924,-163,2182,-25,-238,678,-436,-10252.918,-4146.635,11176.553,-4604.690
20.324035,-215,2208,48,-237,696,-429,-10217.738,-4282.995,11148.102,-4626.988
20.343933,-221,2097,225,-222,677,-423,-10180.462,-4421.061,11118.507,-4650.446,336,-73,113
20.363952,-168,2218,88,-230,695,-424,-10138.749,-4560.791,11089.929,-4674.811
20.383941,-160,2123,125,-278,729,-414,-10093.867,-4702.966,11061.574,-4698.187
20.403930,-286,2138,188,-276,709,-428,-10048.640,-4844.337,11033.573,-4717.300
20.423950,-289,2141,177,-279,687,-444,-10006.957,-4980.559,11004.611,-4731.682
20.443939,-277,2000,143,-246,627,-436,-9970.651,-5106.210,10975.596,-4741.778,336,-83,120
20.463958,-300,2092,226,-214,560,-415,-9941.387,-5213.393,10949.275,-4747.436
20.483978,-335,2015,52,-188,466,-352,-9915.636,-5300.380,10927.573,-4754.968
20.504028,-349,2015,285,-131,394,-252,-9890.485,-5369.009,10911.597,-4767.025
20.523956,-449,1997,285,-118,335,-161,-9867.822,-5422.284,10899.499,-4781.347
20.543976,-278,2056,140,-94,299,-108,-9850.190,-5463.692,10888.617,-4795.338,336,-78,125,40214
20.563995,-354,1961,183,-72,235,-72,-9836.144,-5494.999,10879.261,-4809.611
20.583954,-261,1959,180,-34,184,-42,-9828.189,-5516.902,10869.208,-4823.509
20.603973,-298,2054,120,4,150,-23,-9824.608,-5532.400,10857.530,-4839.329
20.623993,-331,2065,209,37,137,-5,-9823.066,-5543.189,10845.027,-4858.111
20.643982,-272,2121,181,46,132,23,-9820.449,-5551.129,10834.316,-4878.193,329,-73,118
20.664001,-426,2067,225,36,135,44,-9814.072,-5559.588,10827.321,-4896.889
20.683990,-301,2110,254,4,117,38,-9802.374,-5576.749,10821.547,-4913.540
20.703979,-364,2061,234,-30,171,2,-9785.546,-5605.811,10813.823,-4930.986
20.723999,-322,2117,203,-65,241,-34,-9765.869,-5645.053,10800.872,-4953.561
20.743988,-368,1995,255,-53,305,-53,-9743.294,-5694.157,10782.705,-4981.314,323,-84,105
20.764007,-370,2085,353,-44,374,-78,-9718.193,-5754.100,10757.280,-5016.316
20.783996,-338,1965,198,-47,452,-106,-9692.393,-5823.327,10725.634,-5053.967
20.803985,-216,1855,295,-24,496,-145,-9667.758,-5897.264,10689.446,-5091.944
20.824005,-352,1941,281,-16,509,-180,-9643.220,-5971.200,10652.527,-5129.537
20.844024,-358,2002,152,-25,503,-178,-9619.893,-6042.663,10615.406,-5166.476,319,-83,106
20.864013,-234,1880,263,-6,492,-157,-9596.767,-6111.520,10577.922,-5205.225
20.884002,-288,1927,215,4,492,-142,-9573.496,-6176.224,10542.058,-5244.317
20.904022,-372,2004,133,0,479,-131,-9552.165,-6236.347,10506.666,-5282.946
20.924011,-273,1972,216,20,451,-109,-9533.074,-6290.919,10470.457,-5324.452
20.944000,-230,1919,290,44,443,-78,-9515.001,-6336.084,10436.182,-5370.318,333,-71,125
20.964020,-243,2022,275,72,411,-31,-9494.809,-6375.230,10403.913,-5422.089
20.984039,-326,2063,294,72,437,20,-9471.298,-6410.739,10373.657,-5479.015
21.004089,-292,2071,245,72,450,56,-9443.576,-6446.435,10345.265,-5538.345
21.024048,-287,2065,256,53,467,69,-9412.837,-6483.561,10317.154,-5599.437
21.044037,-249,2076,261,36,474,75,-9376.800,-6524.757,10289.540,-5662.504,326,-71,122,40205
21.064026,-285,2048,275,24,517,84,-9332.494,-6569.431,10264.583,-5728.952
21.084045,-294,1978,280,-26,552,99,-9281.975,-6620.137,10237.934,-5799.900
21.104034,-213,1928,235,-30,603,97,-9226.939,-6681.138,10204.893,-5875.508
21.124054,-224,1978,84,-35,686,56,-9170.312,-6754.243,10160.747,-5956.529
21.144043,-255,1979,119,-20,769,-5,-9118.889,-6838.738,10102.813,-6037.063,340,-64,102
21.164062,-251,1892,233,31,809,-102,-9074.802,-6932.609,10031.690,-6114.534
21.184051,-195,1831,110,69,845,-179,-9034.193,-7032.946,9951.187,-6191.150
21.204071,-225,1891,294,93,877,-215,-8996.472,-7133.777,9863.638,-6270.310
21.224060,-190,1866,69,123,869,-224,-8958.893,-7232.064,9773.045,-6352.835
21.244079,-221,1828,45,161,873,-207,-8920.953,-7325.311,9682.045,-6438.156,336,-76,106
21.264068,-204,1954,311,161,877,-174,-8881.336,-7413.478,9591.285,-6527.242
21.284057,-191,1935,165,178,888,-149,-8837.961,-7502.306,9502.171,-6614.380
21.304077,-313,2069,205,139,883,-160,-8788.447,-7596.373,9416.016,-6695.698
21.324096,-296,1994,186,66,915,-174,-8730.746,-7698.714,9332.986,-6770.130
21.344085,-224,1921,301,9,920,-190,-8669.740,-7806.973,9247.636,-6841.303,344,-65,105
21.364074,-155,1946,72,-3,946,-216,-8609.092,-7915.537,9155.796,-6916.260
21.384094,-244,1910,391,45,969,-249,-8562.241,-8020.678,9046.262,-6996.951
21.404083,-550,2026,-218,209,930,-293,-8519.160,-8124.971,8921.093,-7089.308
21.424164,-456,2162,-190,286,1071,-325,-8488.090,-8224.717,8780.494,-7186.426
21.444092,-567,2173,-171,337,1133,-334,-8452.438,-8320.876,8638.009,-7289.687,349,-60,94
21.464111,-733,2204,-72,366,1113,-310,-8416.901,-8413.954,8489.980,-7397.081
21.484100,-588,2107,19,393,1141,-275,-8387.554,-8510.060,8332.336,-7499.028
21.504181,-497,2297,-3,414,1079,-380,-8363.544,-8612.803,8164.257,-7592.832
21.524078,-551,2217,126,387,1067,-438,-8331.793,-8720.284,8001.043,-7678.321
21.544098,-550,2056,-288,339,1048,-449,-8293.104,-8828.175,7841.813,-7760.744,350,-64,81,40222
21.564087,-401,2231,93,293,1091,-418,-8249.028,-8932.767,7683.458,-7845.960
21.584106,-141,2193,280,282,1076,-354,-8200.252,-9031.468,7536.997,-7925.753
21.604095,-271,2209,67,273,968,-358,-8152.974,-9116.672,7420.494,-7986.677
21.624115,-349,2186,114,146,828,-293,-8121.281,-9182.865,7336.066,-8021.057
21.644104,-372,2062,287,49,538,-240,-8110.130,-9232.852,7274.615,-8030.917,346,-60,59
21.664123,-429,2121,224,40,273,-278,-8117.345,-9266.361,7234.143,-8021.588
21.684112,-551,2065,220,18,88,-248,-8141.115,-9281.468,7210.599,-8001.205
21.704132,-447,2077,247,47,-63,-224,-8176.631,-9275.858,7202.564,-7978.701
21.724121,-497,2107,188,71,-220,-129,-8218.485,-9248.353,7207.263,-7963.369
21.744140,-529,2171,69,151,-327,-40,-8269.902,-9202.095,7220.264,-7951.942,333,-54,35
21.764129,-492,2213,-19,211,-393,1,-8332.355,-9144.193,7235.369,-7939.803
21.784149,-551,2271,69,243,-435,-4,-8402.318,-9080.137,7249.840,-7926.374
21.804138,-468,2163,123,279,-502,-24,-8475.927,-9015.212,7266.914,-7906.452
21.824127,-518,2162,73,245,-543,-38,-8552.713,-8948.470,7287.083,-7880.979
21.844146,-491,2143,81,239,-591,-47,-8631.379,-8877.905,7309.814,-7853.925,324,-61,23
21.864135,-503,2122,94,239,-613,-28,-8710.814,-8796.180,7345.815,-7824.535
21.884155,-366,2158,30,224,-683,45,-8793.284,-8699.844,7398.150,-7790.615
21.904144,-427,2172,-86,208,-816,110,-8878.496,-8589.545,7468.184,-7749.430
21.924164,-464,2260,-46,153,-959,165,-8966.387,-8468.374,7554.752,-7697.513
21.944153,-545,2224,-62,92,-1085,196,-9054.533,-8342.084,7655.152,-7632.767,318,-62,32
21.964172,-539,2201,-187,40,-1105,205,-9138.779,-8213.943,7768.174,-7556.770
21.984161,-549,2162,-181,-41,-1160,225,-9217.015,-8086.550,7886.883,-7475.750
22.004181,-502,2091,16,-85,-1167,240,-9287.804,-7961.018,8004.437,-7397.521
22.024170,-491,2264,-14,-69,-1105,256,-9357.144,-7837.132,8113.805,-7322.897
22.044159,-514,2139,70,-42,-1069,227,-9427.253,-7720.195,8212.036,-7247.301,318,-58,27,40245
22.064178,-533,2110,-76,-24,-1022,167,-9495.295,-7610.346,8302.735,-7170.914
22.084167,-556,2151,-58,-35,-976,148,-9558.907,-7502.439,8389.421,-7098.856
22.104187,-505,2153,-116,-27,-945,161,-9618.928,-7395.536,8475.925,-7026.833
22.124176,-477,2211,-84,-43,-926,163,-9676.366,-7291.470,8561.467,-6952.635
22.144165,-437,2156,-225,-76,-914,137,-9733.400,-7190.287,8649.024,-6869.534,325,-62,18
22.164184,-382,2126,-223,-110,-967,108,-9787.189,-7088.643,8743.982,-6777.926
22.184204,-501,2143,-104,-180,-998,121,-9833.833,-6981.522,8849.537,-6683.951
22.204193,-464,2115,-236,-235,-1023,200,-9867.857,-6872.420,8963.437,-6594.503
22.224182,-472,2132,-191,-267,-1008,262,-9892.277,-6765.092,9080.611,-6508.019
22.244201,-451,2281,-88,-298,-972,278,-9910.357,-6660.671,9201.733,-6417.461,334,-60,36
22.264221,-400,2211,-153,-369,-970,279,-9923.197,-6557.936,9327.622,-6320.960
22.284210,-327,2184,-65,-424,-989,280,-9928.603,-6456.104,9458.732,-6221.685
22.304199,-301,2080,-88,-472,-987,293,-9927.482,-6355.277,9592.007,-6122.449
22.324219,-270,2050,104,-489,-958,302,-9923.506,-6254.219,9725.878,-6020.922
22.344208,-263,2040,-122,-491,-968,296,-9920.941,-6151.373,9857.040,-5916.901,331,-61,35
22.364227,-260,2007,68,-469,-981,285,-9924.609,-6046.699,9981.174,-5809.575
22.384216,-314,2024,58,-409,-1012,251,-9930.741,-5940.626,10099.707,-5702.692
22.404205,-216,2016,-112,-409,-987,253,-9930.842,-5831.781,10219.220,-5601.041
22.424225,-290,1966,-44,-418,-940,312,-9919.805,-5727.868,10335.009,-5514.708
22.444214,-328,1804,-39,-428,-841,358,-9898.771,-5632.955,10443.430,-5445.580,333,-61,63
22.464233,-152,1933,-184,-406,-701,372,-9876.311,-5548.162,10540.507,-5386.047
22.484222,-143,1956,-12,-383,-625,319,-9856.931,-5473.817,10624.641,-5332.041
22.504242,-111,1926,10,-326,-549,278,-9838.658,-5408.292,10703.470,-5274.690
22.524231,96,1951,189,-328,-538,209,-9820.891,-5347.727,10781.367,-5210.516
22.544250,-80,2006,143,-341,-589,183,-9804.072,-5288.608,10859.673,-5139.427,350,-68,88,40236
22.564239,2,2064,137,-361,-601,152,-9791.250,-5225.304,10936.681,-5064.787
22.584259,-57,2015,242,-333,-649,167,-9780.595,-5151.712,11016.392,-4987.421
22.604248,78,2135,282,-300,-707,194,-9774.297,-5065.609,11099.463,-4903.066
22.624237,14,2067,252,-287,-811,220,-9770.981,-4970.316,11186.067,-4809.494
22.644317,101,2169,110,-302,-864,216,-9767.546,-4868.505,11273.657,-4715.166,350,-83,115
22.664245,43,2172,273,-301,-863,258,-9759.549,-4761.860,11363.091,-4625.094
22.684265,-23,2013,288,-334,-850,297,-9750.456,-4649.523,11452.323,-4537.650
22.704254,29,1866,207,-284,-882,325,-9745.886,-4532.054,11536.847,-4451.379
22.724273,123,2094,301,-215,-864,322,-9752.213,-4412.418,11609.592,-4367.804
22.744262,23,2098,171,-139,-849,304,-9770.199,-4292.675,11670.238,-4284.523,359,-83,131
22.764282,135,2096,219,-59,-860,264,-9797.171,-4174.596,11720.765,-4200.866
22.784271,-121,1969,142,-5,-883,213,-9832.049,-4062.686,11760.733,-4116.552
22.804260,58,2006,113,57,-822,163,-9870.831,-3962.226,11792.426,-4030.084
22.824280,28,1906,215,67,-773,75,-9912.558,-3873.245,11816.677,-3942.175
22.844269,-59,2098,332,79,-736,22,-9953.387,-3791.337,11837.472,-3855.585,350,-87,145
22.864288,6,2135,199,78,-701,9,-9989.856,-3715.704,11858.431,-3769.531
22.884277,-107,2273,326,39,-673,-4,-10017.875,-3647.659,11883.538,-3681.538
22.904297,-176,2145,108,-44,-663,-33,-10035.665,-3588.991,11915.339,-3586.739
22.924286,-256,2204,130,-107,-675,-77,-10041.887,-3540.111,11953.278,-3490.371
22.944305,-334,2232,194,-184,-630,-95,-10035.966,-3499.877,11997.251,-3395.829,352,-92,166
22.964294,-286,2258,265,-274,-570,-83,-10021.250,-3468.123,12042.378,-3311.077
22.984314,-230,2146,194,-300,-489,-77,-9999.975,-3445.958,12087.620,-3232.760
23.004333,-262,2138,342,-320,-417,-100,-9976.491,-3433.047,12132.386,-3150.312
23.024292,-398,2222,398,-357,-404,-167,-9952.179,-3429.365,12176.606,-3059.294
23.044311,-424,2018,399,-383,-402,-230,-9925.877,-3436.878,12219.053,-2965.638,344,-98,172,40205
23.064300,-340,2017,478,-370,-362,-283,-9894.280,-3456.792,12260.270,-2876.635
23.084289,-261,1851,406,-401,-275,-317,-9865.559,-3487.310,12293.521,-2795.385
23.104309,-382,1815,284,-351,-219,-348,-9852.900,-3523.746,12310.710,-2717.613
23.124298,-213,1767,267,-188,-203,-397,-9865.964,-3560.311,12305.647,-2644.504
23.144317,-128,1931,213,22,-203,-420,-9904.340,-3578.862,12282.730,-2581.812,339,-103,183
23.164306,14,2092,310,189,-239,-303,-9952.006,-3569.399,12256.251,-2537.070
23.184326,44,2128,427,250,-275,-114,-9987.897,-3527.838,12245.479,-2505.982
23.204315,193,2050,355,136,-337,110,-10000.045,-3450.458,12262.759,-2480.647
23.224334,244,2127,572,-36,-459,335,-9988.868,-3336.961,12307.822,-2457.671
23.244323,266,2111,610,-192,-579,531,-9957.286,-3186.538,12379.447,-2425.520,313,-93,190
23.264343,402,2026,499,-350,-759,688,-9907.135,-3008.164,12473.546,-2376.070
23.284332,264,2011,566,-495,-918,739,-9845.589,-2820.315,12579.762,-2301.132
23.304352,222,2046,630,-577,-1079,670,-9781.684,-2639.177,12686.718,-2199.097
23.324371,242,1876,754,-604,-1141,537,-9723.048,-2465.959,12788.192,-2068.564
23.344330,368,1862,617,-571,-1248,402,-9669.598,-2291.949,12884.389,-1916.716,312,-106,212
23.364349,202,1781,727,-553,-1326,373,-9621.992,-2104.388,12973.688,-1762.861
23.384369,193,1826,491,-490,-1373,446,-9586.303,-1896.501,13050.366,-1621.561
23.404358,463,1845,469,-328,-1357,592,-9572.389,-1664.781,13106.720,-1499.063
23.424347,337,1901,181,-135,-1368,729,-9585.327,-1409.091,13139.424,-1388.141
23.444366,242,1866,63,76,-1412,827,-9628.366,-1145.302,13144.805,-1277.653,312,-97,205
23.464355,-164,1958,274,331,-1408,802,-9699.184,-891.657,13123.096,-1162.137
23.484375,-90,2244,258,521,-1374,691,-9781.287,-669.397,13085.586,-1039.807
23.504364,-207,2466,132,548,-1272,488,-9850.584,-494.477,13050.697,-914.455
23.524383,-208,2428,245,375,-1089,268,-9894.869,-367.967,13029.092,-796.464
23.544372,-368,2357,234,199,-889,104,-9907.880,-278.785,13027.287,-693.855,312,-118,223,40216
23.564361,-291,2253,403,-5,-688,20,-9895.592,-233.238,13041.852,-606.950
23.584381,-455,2100,481,-179,-459,-144,-9865.475,-238.013,13067.946,-529.117
23.604370,-146,1873,362,-271,-255,-348,-9832.934,-290.262,13094.286,-451.966
23.624389,-331,2052,418,-224,-128,-554,-9813.899,-371.510,13109.364,-359.709
23.644378,-629,2168,472,-126,-146,-753,-9813.976,-481.995,13108.494,-237.431,304,-124,229
23.664398,-600,2119,314,7,-183,-1002,-9827.838,-621.411,13094.067,-91.039
23.684387,-675,2085,254,90,-178,-1183,-9856.838,-778.077,13064.029,62.590
23.704406,-711,2269,198,235,-160,-1235,-9907.794,-932.111,13013.771,209.697
23.724396,-511,2277,247,417,-155,-1172,-9975.112,-1062.579,12949.203,348.770
23.744385,-279,2180,253,501,-213,-1013,-10048.420,-1152.712,12880.516,477.770,272,-118,237
23.764404,-185,1987,292,522,-353,-784,-10120.514,-1195.602,12814.801,601.699
23.784393,-154,2011,99,494,-504,-562,-10188.375,-1192.667,12754.959,721.816
23.804413,138,2367,419,429,-636,-353,-10242.874,-1141.669,12708.495,842.439
23.824402,65,2243,712,255,-833,-140,-10261.360,-1039.016,12693.318,969.559
23.844421,99,2121,581,-96,-1030,50,-10234.584,-887.825,12715.007,1108.639,265,-118,228
23.864502,95,2086,631,-413,-1226,194,-10173.589,-702.347,12760.197,1271.849
23.884430,17,2097,757,-631,-1443,209,-10082.720,-496.710,12820.572,1469.828
23.904419,-168,2030,787,-818,-1659,150,-9963.788,-266.000,12891.518,1701.867
23.924408,-57,1720,723,-988,-1895,165,-9824.565,0.342,12964.936,1955.450
23.944427,-99,1590,348,-1075,-2086,279,-9690.108,312.054,13021.460,2209.397,221,-112,222
23.964416,-42,1532,285,-944,-2250,555,-9594.839,683.529,13033.764,2455.255
23.984436,-83,1611,127,-604,-2455,917,-9553.581,1115.430,12987.056,2693.825
24.004425,-184,1924,-8,-220,-2637,1253,-9551.681,1581.748,12887.829,2933.045
24.024414,-356,1953,-150,49,-2787,1379,-9568.520,2049.153,12747.694,3190.007
24.044433,-438,2224,-220,253,-2877,1300,-9586.521,2492.279,12584.753,3456.383,194,-111,219,40206
24.064453,-439,2310,-330,311,-2809,1172,-9591.702,2904.325,12415.271,3722.986
24.084442,-425,2413,-94,272,-2709,1033,-9578.122,3293.670,12248.839,3976.517
24.104431,-252,2599,-75,175,-2583,986,-9535.584,3676.051,12097.551,4200.472
24.124450,-391,2537,179,-84,-2437,1029,-9457.668,4054.189,11973.176,4381.160
24.144439,-549,2226,43,-372,-2248,1034,-9338.804,4413.664,11880.557,4538.072,173,-134,229
24.164459,-549,1864,-190,-628,-2092,871,-9195.504,4727.651,11811.420,4692.314
24.184479,-712,1616,-285,-630,-1927,583,-9065.962,4974.228,11741.302,4862.369
24.204468,-856,1680,-377,-330,-1748,282,-8981.355,5137.141,11653.727,5056.790
24.224487,-670,2073,-336,151,-1520,-26,-8947.051,5214.905,11550.610,5270.092
24.244476,-509,2436,-189,516,-1249,-291,-8937.148,5242.330,11448.655,5478.056,162,-122,206
24.264465,-534,2315,-245,581,-1065,-381,-8925.519,5259.140,11357.510,5667.360
24.284454,-327,2176,-279,469,-960,-357,-8909.706,5283.008,11272.944,5836.363
24.304474,-207,1943,-391,428,-933,-256,-8898.934,5326.708,11178.049,5993.479
24.324554,20,1945,-250,427,-996,-98,-8899.007,5407.235,11059.709,6139.034
24.344482,99,2103,-47,440,-1123,194,-8904.551,5544.122,10915.758,6265.248,151,-106,177
24.364471,291,2064,187,361,-1269,531,-8895.363,5746.810,10754.144,6374.205
24.384491,318,1969,277,133,-1536,795,-8845.941,6015.606,10582.965,6480.594
24.404480,367,2276,321,-153,-1843,928,-8739.993,6346.347,10400.312,6603.434
24.424469,149,2505,442,-395,-2269,994,-8577.870,6728.189,10199.744,6749.241
24.444488,-177,2622,471,-613,-2677,967,-8341.379,7135.726,10001.002,6922.296,119,-105,151
24.464477,-321,2299,461,-890,-2980,738,-8027.232,7542.261,9816.079,7124.454
24.484497,-318,2007,293,-1115,-3206,411,-7649.647,7938.571,9639.476,7346.966
24.504486,-252,1745,304,-1222,-3371,231,-7263.791,8331.849,9433.525,7567.144
24.524505,-317,1570,249,-1083,-3424,429,-6925.940,8729.589,9161.286,7767.360
24.544494,-388,1494,215,-785,-3327,882,-6663.710,9113.884,8832.343,7934.558,120,-97,120,40210
24.564514,-292,1600,145,-463,-3043,1254,-6474.557,9459.054,8472.837,8077.924
24.584503,-192,1897,152,-139,-2714,1418,-6341.824,9754.793,8109.730,8203.231
24.604492,-259,2241,281,44,-2364,1420,-6242.104,10004.381,7778.879,8298.974
24.624511,-249,2447,487,29,-1956,1286,-6156.349,10214.890,7508.066,8355.822
24.644500,-75,2398,556,-135,-1544,1069,-6068.374,10398.731,7311.302,8367.886,132,-95,92
24.664520,-32,2185,542,-410,-1190,819,-5975.965,10563.052,7186.756,8336.410
24.684540,-22,2173,533,-641,-860,585,-5888.080,10690.974,7123.322,8290.192
24.704529,-84,2121,455,-613,-546,265,-5799.138,10759.642,7125.596,8262.046
24.724548,8,2115,374,-463,-303,-223,-5705.737,10761.237,7185.083,8273.472
24.744537,29,1979,303,-222,-153,-647,-5631.961,10710.062,7266.249,8319.413,131,-93,84
24.764557,-13,1913,174,79,14,-746,-5608.482,10623.178,7338.308,8383.179
24.784546,-17,2060,52,401,196,-651,-5628.637,10507.999,7395.072,8464.557
24.804535,124,2043,46,654,291,-589,-5670.869,10379.639,7433.476,8560.560
24.824554,197,2069,-138,777,249,-504,-5719.138,10259.740,7449.691,8658.332
24.844543,235,2002,-146,776,170,-384,-5758.977,10164.828,7440.021,8751.684,155,-79,54
24.864563,227,1874,-5,671,13,-230,-5782.599,10109.638,7395.807,8837.095
24.884552,137,1899,169,558,-274,-16,-5792.647,10101.022,7309.854,8911.568
24.904541,84,2004,334,429,-489,246,-5786.033,10136.747,7188.227,8974.018
24.924560,-28,2082,552,275,-727,422,-5753.142,10213.480,7041.612,9024.263
24.944549,80,2030,566,101,-948,526,-5678.216,10319.717,6880.006,9075.365,149,-76,72
24.964569,67,2070,558,-38,-1231,454,-5552.868,10439.515,6712.764,9140.919
24.984558,-12,2113,578,-145,-1492,291,-5365.929,10573.805,6539.321,9223.566
25.004577,-156,2213,478,-262,-1825,134,-5123.472,10730.289,6348.665,9313.475
25.024566,-322,2184,393,-403,-2126,108,-4849.412,10903.036,6132.388,9404.055
25.044586,-436,1942,381,-458,-2278,185,-4586.837,11076.169,5895.079,9484.876,126,-89,43,40199
25.064575,-431,1819,297,-393,-2203,355,-4368.948,11235.791,5648.764,9549.669
25.084656,-301,1925,305,-283,-1938,537,-4207.650,11370.990,5406.417,9602.205
25.104583,-225,2091,295,-153,-1641,652,-4095.156,11483.615,5178.687,9642.246
25.124573,-15,2102,263,-87,-1354,701,-4016.966,11578.475,4976.249,9668.261
25.144592,120,1977,287,-75,-1085,681,-3968.136,11660.885,4794.988,9680.969,150,-79,32
25.164581,251,1868,180,-64,-880,705,-3942.868,11735.070,4626.446,9683.664
25.184570,361,2088,314,-44,-728,717,-3934.718,11797.747,4469.075,9684.727
25.204590,303,2351,456,-10,-625,692,-3925.849,11858.271,4332.356,9676.530
25.224609,168,2479,603,-129,-553,580,-3898.131,11930.805,4234.588,9641.792
25.244598,73,2276,646,-402,-460,381,-3853.492,12013.886,4196.371,9573.037,158,-78,14
25.264587,68,2025,789,-672,-260,121,-3801.530,12093.899,4218.637,9482.854
25.284607,123,1757,751,-762,-31,-108,-3760.821,12153.749,4283.368,9393.125
25.304626,185,1611,709,-667,160,-241,-3745.222,12185.310,4363.218,9321.442
25.324707,184,1622,781,-437,316,-253,-3757.570,12185.313,4441.454,9279.426
25.344604,167,1797,658,-140,413,-238,-3790.826,12151.637,4518.005,9273.102,182,-59,7
25.364624,138,1996,620,148,464,-297,-3824.851,12087.882,4599.486,9302.353
25.384613,128,2131,591,354,430,-440,-3848.157,12003.421,4690.582,9356.465
25.404632,59,2204,495,453,395,-567,-3853.857,11910.972,4785.061,9424.179
25.424621,-15,2242,400,483,301,-652,-3843.227,11816.125,4872.378,9502.850
25.444641,-149,2327,303,516,190,-669,-3822.733,11722.992,4949.104,9586.447,198,-64,10
25.464630,-209,2315,177,504,141,-644,-3799.142,11634.239,5013.856,9669.937
25.484649,-277,2273,191,499,75,-568,-3783.602,11555.144,5060.370,9746.337
25.504638,-236,2120,162,471,57,-416,-3777.978,11488.754,5085.233,9813.830
25.524627,-165,2117,280,436,18,-258,-3787.000,11436.965,5087.480,9869.521
25.544647,-19,2069,271,384,0,-67,-3813.082,11402.344,5064.776,9911.126,184,-66,33,40199
25.564636,79,2080,410,336,-14,136,-3849.432,11381.358,5024.057,9941.874
25.584656,177,2032,342,297,-34,232,-3878.516,11371.884,4971.634,9967.730
25.604645,144,1975,335,231,-143,253,-3882.614,11371.798,4909.734,9996.872
25.624664,69,2026,375,195,-316,176,-3856.668,11376.359,4847.628,10031.974
25.644653,-36,1900,394,145,-429,66,-3800.171,11387.382,4794.778,10066.368,175,-66,5
25.664642,-55,1866,371,39,-525,-75,-3715.329,11400.810,4752.239,10102.946
25.684662,-185,1909,439,0,-591,-198,-3610.765,11416.125,4713.927,10141.439
25.704681,-222,2039,404,-34,-660,-263,-3492.380,11438.853,4676.430,10174.594
25.724670,-271,2060,426,-125,-694,-265,-3370.808,11470.834,4637.525,10197.372
25.744659,-339,2049,442,-193,-704,-241,-3248.688,11506.704,4598.878,10214.086,173,-70,-5
25.764648,-364,2124,508,-211,-699,-235,-3129.015,11541.339,4563.590,10228.188
25.784668,-392,2112,474,-220,-660,-249,-3007.504,11575.708,4535.666,10238.216
25.804687,-326,2066,469,-257,-632,-285,-2888.007,11612.444,4513.788,10240.689
25.824676,-249,1903,433,-302,-594,-259,-2782.101,11653.120,4482.825,10237.402
25.844696,-272,1870,476,-273,-561,-126,-2703.016,11690.917,4432.636,10237.350,172,-78,-4
25.864685,-282,1910,458,-156,-524,46,-2650.538,11723.547,4364.570,10243.000
25.884674,-239,1902,513,-92,-479,181,-2616.130,11754.016,4290.568,10248.192
25.904693,-229,1899,522,-66,-417,243,-2597.031,11783.287,4225.365,10246.526
25.924682,-273,1851,586,-84,-301,238,-2587.562,11808.652,4180.437,10238.146
25.944702,-229,1881,596,-97,-169,170,-2584.849,11827.798,4159.396,10225.293,169,-67,-8
25.964721,-232,1896,591,-96,-42,95,-2590.941,11838.098,4159.233,10211.889
25.984710,-261,1895,615,-63,82,27,-2606.221,11838.164,4178.083,10200.222
26.004699,-256,1981,593,-20,189,-42,-2629.209,11826.302,4220.081,10190.789
26.024688,-309,2005,542,29,315,-132,-2656.790,11800.709,4285.800,10185.876
26.044708,-286,1961,479,79,414,-254,-2680.807,11761.779,4375.707,10186.385,173,-74,-5,40214
26.064697,-247,1958,398,121,475,-390,-2702.695,11712.988,4478.695,10192.059
26.084717,-212,1909,344,152,499,-433,-2728.235,11657.977,4580.428,10203.108
26.104736,-222,1851,281,205,503,-402,-2767.804,11600.706,4673.982,10215.293
26.124725,-169,1859,290,236,539,-306,-2821.480,11544.472,4753.925,10227.416
26.144714,-122,1901,246,273,534,-194,-2888.138,11489.534,4814.587,10242.287,179,-61,-11
26.164734,-95,1957,199,330,497,-69,-2965.379,11432.785,4853.150,10265.491
26.184723,-90,2133,212,419,444,33,-3044.691,11370.966,4874.184,10300.910
26.204742,-98,2218,176,496,367,61,-3118.595,11305.389,4885.035,10345.743
26.224731,-108,2257,122,530,304,49,-3179.473,11241.754,4893.118,10392.629
26.244751,-112,2182,136,485,235,0,-3223.390,11184.532,4901.531,10436.782,172,-73,-16
26.264740,-109,1982,53,414,174,-39,-3256.284,11134.221,4906.553,10477.925
26.284759,-96,2001,-8,386,117,-28,-3294.570,11086.672,4901.427,10518.695
26.304809,-160,2100,-13,411,110,64,-3348.068,11040.300,4883.100,10559.023
26.324829,-159,2221,-17,440,137,178,-3414.323,10998.537,4858.680,10592.603
26.344757,-163,2286,45,398,178,247,-3487.076,10965.491,4839.364,10611.988,156,-73,-11
26.364746,-132,2299,85,299,238,266,-3562.022,10943.215,4830.798,10613.994
26.384765,-21,2337,98,176,298,269,-3637.166,10933.881,4831.128,10597.967
26.404754,26,2226,104,53,337,282,-3708.036,10936.766,4835.271,10568.501
26.424743,40,2094,119,-45,327,280,-3770.996,10946.642,4840.509,10533.542
26.444763,75,2126,108,-79,289,249,-3824.198,10954.315,4846.504,10503.586,168,-73,-16
26.464752,18,2177,145,-51,250,200,-3869.987,10958.365,4851.815,10480.113
26.484771,19,2231,133,-30,215,167,-3907.645,10963.205,4858.750,10457.841
26.504760,-39,2205,158,-59,195,130,-3942.384,10968.855,4872.544,10432.428
26.524780,-73,2228,143,-89,235,106,-3979.794,10972.961,4896.048,10402.861
26.544769,-75,2253,226,-109,301,78,-4021.815,10974.380,4932.806,10367.779,158,-71,-36,40216
26.564789,-29,2239,199,-126,390,53,-4072.987,10973.419,4983.045,10324.705
26.584778,9,2177,234,-157,497,49,-4135.493,10970.580,5045.530,10272.396
26.604767,79,2082,205,-172,603,55,-4212.442,10964.702,5116.907,10211.921
26.624786,126,1988,245,-174,697,80,-4300.699,10954.386,5192.532,10147.830
26.644775,207,1920,242,-148,753,95,-4396.550,10936.477,5268.189,10086.894,173,-67,-35
26.664795,207,1885,214,-83,780,100,-4497.092,10908.871,5338.896,10035.154
26.684784,264,1928,188,13,762,95,-4595.680,10870.024,5402.333,9998.626
26.704803,237,2128,257,128,703,61,-4686.931,10821.284,5456.542,9979.683
26.724792,174,2351,280,209,611,19,-4761.717,10771.317,5505.980,9971.178
26.744781,140,2362,306,190,515,-43,-4815.565,10727.083,5557.181,9964.597,179,-80,-22
26.764801,81,2223,292,112,434,-114,-4847.548,10692.690,5614.641,9953.838
26.784790,101,2041,244,7,377,-189,-4860.357,10667.948,5678.012,9938.180
26.804809,65,1932,159,-79,321,-235,-4864.769,10647.367,5740.927,9921.934
26.824829,31,1925,103,-77,294,-238,-4872.554,10621.064,5796.976,9913.713
26.844818,-11,1953,142,12,280,-213,-4891.624,10583.755,5846.462,9915.163,178,-74,-19
26.864807,-46,2001,137,128,311,-185,-4924.985,10536.978,5890.737,9922.261
26.884826,-81,2037,123,201,354,-147,-4966.929,10485.446,5934.417,9929.912
26.904815,-65,2091,148,218,398,-136,-5013.185,10433.494,5983.658,9931.840
26.924804,-48,2042,166,178,441,-134,-5059.062,10388.122,6040.900,9921.479
26.944824,-97,2059,217,79,476,-133,-5101.301,10349.737,6108.354,9898.641,177,-71,-22
26.964844,-97,2067,243,-16,521,-149,-5142.467,10314.400,6185.645,9866.175
26.984833,-85,2009,251,-61,564,-159,-5184.196,10281.367,6269.709,9825.668
27.004822,-74,1928,237,-103,593,-163,-5227.258,10247.926,6356.552,9781.895
27.024841,-124,1970,288,-96,614,-161,-5272.908,10210.929,6442.603,9739.695
27.044830,-158,2083,316,-64,617,-161,-5321.067,10169.854,6527.194,9700.076,169,-70,-10,40205
27.064850,-140,2103,356,-39,631,-155,-5367.985,10127.390,6616.290,9658.201
27.084869,-138,2070,372,-76,651,-188,-5409.504,10085.166,6712.561,9612.681
27.104858,-28,1925,342,-114,655,-229,-5447.757,10042.462,6812.789,9565.158
27.124847,-28,1825,299,-109,661,-241,-5491.547,9997.387,6904.990,9521.119
27.144867,69,1848,247,-37,642,-184,-5546.776,9948.776,6978.018,9486.719,158,-80,-18
27.164856,25,1964,255,88,595,-98,-5615.389,9894.207,7029.197,9465.617
27.184875,-26,2134,262,233,539,-30,-5691.055,9832.687,7064.383,9458.334
27.204864,-17,2242,247,329,491,-12,-5766.388,9768.559,7092.143,9458.380
27.224884,34,2174,254,341,466,-10,-5839.061,9707.756,7116.081,9458.417
27.244873,31,2069,194,328,445,8,-5912.628,9652.616,7134.559,9455.227,156,-76,-2
27.264862,76,1866,68,321,428,66,-5993.451,9599.105,7141.479,9453.594
27.284881,68,1842,-12,392,402,125,-6086.918,9536.682,7132.787,9463.609
27.304870,91,2004,29,545,385,165,-6192.431,9461.637,7109.135,9488.248
27.324890,95,2265,60,686,363,185,-6304.818,9379.985,7074.874,9520.858
27.344879,70,2428,-26,738,351,207,-6412.533,9301.563,7041.456,9550.585,147,-70,11
27.364898,69,2408,-106,658,341,187,-6506.046,9228.459,7018.472,9575.145
27.384887,129,2341,-170,569,340,114,-6587.296,9158.766,7006.382,9595.341
27.404907,88,2267,-219,503,326,70,-6663.559,9090.806,6997.192,9613.998
27.424896,101,2244,-215,486,313,59,-6737.084,9024.289,6989.771,9630.806
27.444916,72,2192,-320,456,326,57,-6808.914,8958.586,6986.083,9644.299,144,-73,7
27.464905,100,2131,-301,426,351,53,-6881.919,8892.212,6988.749,9651.973
27.484894,114,2127,-280,397,396,49,-6956.666,8826.508,6998.420,9651.689
27.504883,133,2217,-320,353,433,51,-7028.534,8763.219,7015.853,9644.632
27.524963,69,2141,-239,291,462,30,-7092.518,8701.628,7043.432,9633.449
27.544922,73,2135,-213,238,467,-23,-7144.722,8641.727,7082.674,9620.013,151,-83,-16,40189
27.564911,43,2102,-174,156,467,-92,-7184.911,8585.214,7131.866,9604.325
27.584930,64,2132,-100,80,460,-141,-7212.302,8535.142,7191.096,9584.237
27.604919,27,2211,-70,-21,448,-178,-7226.646,8493.777,7259.765,9558.378
27.624939,-92,2222,-19,-119,445,-220,-7228.507,8457.449,7341.953,9526.352
27.644928,-146,2199,83,-209,462,-280,-7216.778,8421.898,7440.471,9490.236,160,-78,-20
27.664917,-135,2064,98,-288,480,-364,-7193.932,8385.158,7552.083,9451.875
27.684906,-90,1840,56,-342,492,-427,-7168.331,8345.581,7668.360,9412.650
27.704925,-103,1707,80,-321,528,-426,-7154.165,8304.232,7773.012,9374.080
27.725067,-107,1779,110,-230,512,-331,-7162.000,8260.049,7855.060,9338.672
27.744934,-219,2023,122,-79,495,-196,-7192.497,8211.909,7912.649,9309.025,159,-84,-28
27.764923,-197,2253,197,68,478,-94,-7233.507,8159.873,7960.152,9282.471
27.784942,-205,2328,164,99,476,-82,-7269.585,8108.412,8013.206,9253.687
27.804931,-134,2075,167,31,493,-127,-7296.235,8058.955,8074.870,9222.261
27.825012,-100,1837,38,-15,481,-163,-7324.522,8006.461,8134.004,9193.550
27.844970,-85,1771,-55,56,483,-144,-7369.971,7946.419,8177.425,9170.774
27.864959,-83,1890,-59,216,485,-63,-7440.935,7875.164,8197.235,9157.240,129,-91,-3
27.884948,-74,2085,-92,418,486,28,-7531.904,7793.473,8196.626,9153.302
27.904968,-45,2226,-175,561,468,77,-7632.370,7704.117,8185.612,9155.582
27.924957,-33,2153,-259,627,471,78,-7734.374,7612.799,8169.273,9160.958
27.944946,0,2115,-323,644,448,86,-7835.694,7521.847,8149.386,9167.696
27.964966,87,2188,-459,646,426,90,-7936.357,7433.146,8122.279,9177.505,129,-89,-12
27.984955,5,2338,-459,666,380,110,-8038.068,7348.537,8085.943,9189.202
28.004974,28,2390,-470,689,347,146,-8136.374,7272.155,8044.819,9199.537
28.024994,-63,2377,-584,630,301,174,-8223.260,7207.931,8008.878,9204.184
28.044983,10,2205,-671,501,262,157,-8292.772,7158.058,7985.141,9201.363,129,-89,-12,40167
28.064972,41,2045,-626,345,251,132,-8346.896,7120.712,7971.744,9193.014,118,-85,-16
28.084961,34,2099,-614,234,225,117,-8392.496,7095.521,7966.119,9175.836
28.104980,17,2171,-488,123,218,136,-8432.118,7080.853,7969.039,9148.265
28.125000,-69,2343,-399,31,235,154,-8461.551,7075.576,7988.837,9107.814
28.144989,-3,2345,-371,-123,277,117,-8471.045,7078.783,8032.849,9057.648
28.164978,-12,2241,-264,-319,296,35,-8457.148,7090.925,8103.660,8997.864,123,-90,-27
28.184997,-25,2067,-208,-497,328,-46,-8426.043,7109.067,8193.257,8931.345
28.205017,27,1913,-136,-617,345,-101,-8383.129,7131.960,8293.575,8860.605
28.225006,49,1829,-74,-686,342,-126,-8335.145,7156.700,8394.396,8790.708
28.244995,18,1827,-48,-676,306,-136,-8286.628,7180.691,8487.493,8727.392
28.265014,-34,1910,45,-624,261,-140,-8238.082,7205.192,8571.346,8671.024,132,-80,-29
28.285003,-12,1942,82,-592,215,-129,-8186.650,7233.879,8649.175,8618.408
28.304992,-32,1914,104,-588,158,-122,-8130.992,7266.722,8722.418,8569.514
28.325073,-64,1921,84,-595,118,-123,-8075.354,7300.904,8789.406,8524.507
28.345031,-57,1894,48,-552,92,-111,-8023.275,7330.703,8847.439,8487.998
28.365021,-129,1879,31,-464,52,-122,-7975.585,7351.447,8896.860,8463.308,125,-78,-11
28.385040,-144,1881,-38,-365,32,-157,-7933.841,7359.544,8938.902,8451.196
28.405029,-171,1880,-148,-263,28,-186,-7904.866,7353.935,8971.752,8448.422
28.425018,-173,1894,-68,-119,50,-178,-7895.350,7334.591,8991.010,8453.661
28.445038,-139,2096,-141,40,75,-141,-7904.898,7307.307,8995.573,8463.506
28.465027,-149,2305,-236,157,78,-80,-7926.969,7279.769,8988.583,8474.015,125,-85,12
28.485046,-156,2399,-212,196,75,-20,-7953.322,7256.491,8977.990,8480.514
28.505066,-135,2264,-299,176,86,18,-7979.824,7238.296,8969.115,8480.559
28.525055,-80,2083,-406,134,95,53,-8011.595,7226.403,8956.878,8473.677
28.545044,-90,1985,-434,154,108,136,-8059.425,7219.017,8932.849,8459.970,125,-85,12,40205
28.565033,-56,2042,-412,213,123,254,-8126.583,7212.109,8899.374,8436.865,120,-90,28
28.585052,5,2208,-384,264,178,351,-8203.396,7207.065,8865.430,8402.505
28.605072,-20,2247,-337,232,225,398,-8275.706,7208.373,8840.723,8356.380
28.625061,58,2224,-314,119,262,403,-8335.059,7217.483,8831.532,8299.047
28.645050,99,2205,-306,-30,283,367,-8380.532,7234.782,8837.746,8231.298
28.665069,144,2094,-200,-161,296,349,-8415.142,7259.101,8858.196,8152.215,126,-79,20
28.685058,170,1970,-129,-270,329,338,-8441.806,7288.718,8889.848,8063.282
28.705078,221,1914,-171,-352,355,331,-8464.095,7319.764,8925.951,7971.384
28.725067,290,1995,-90,-367,352,315,-8484.237,7347.842,8961.591,7883.669
28.745117,296,2029,-51,-342,327,288,-8499.837,7376.117,8993.759,7803.421
28.765075,257,2061,-33,-330,272,257,-8507.355,7405.281,9022.410,7734.227,136,-72,20
28.785064,334,2084,-9,-314,200,207,-8506.909,7434.015,9046.117,7679.265
28.805084,268,2039,-51,-282,116,161,-8501.583,7462.472,9062.174,7638.522
28.825073,244,1977,-88,-228,35,123,-8492.383,7489.959,9068.708,7614.060
28.845093,240,1904,-90,-164,-46,89,-8482.486,7514.525,9063.276,7607.351
28.865082,232,1945,-141,-67,-114,64,-8477.851,7533.815,9044.332,7615.979,152,-74,38
28.885071,218,2175,-144,43,-155,60,-8478.960,7551.098,9012.411,7635.447
28.905090,130,2314,-128,107,-213,73,-8477.030,7570.245,8975.519,7662.038
28.925110,107,2347,-138,99,-262,49,-8465.338,7590.725,8944.678,7690.715
28.945099,93,2054,-154,39,-269,3,-8444.063,7612.758,8921.507,7719.188
28.965088,121,1900,-215,-8,-277,-25,-8422.475,7637.680,8898.058,7745.175,151,-78,37
28.985107,161,1924,-271,-1,-275,15,-8412.812,7665.010,8865.310,7766.203
29.005096,221,2086,-219,56,-252,112,-8418.674,7694.077,8821.651,7780.810
29.025116,191,2207,-136,102,-225,198,-8430.095,7724.986,8776.735,7788.610
29.045135,201,2164,-100,70,-196,211,-8437.379,7754.135,8743.932,7788.653,151,-78,37,40167
29.065124,224,2000,-113,-10,-128,167,-8437.494,7778.394,8729.505,7780.517,152,-74,29
29.085113,254,1899,-206,-81,-57,100,-8432.616,7792.941,8730.599,7770.014
29.105133,267,1896,-115,-101,-3,15,-8424.661,7795.940,8742.969,7761.722
29.125122,306,2014,-87,-100,40,-64,-8413.375,7790.732,8763.175,7756.403
29.145141,259,2103,7,-107,67,-119,-8398.705,7782.375,8790.569,7749.691
29.165130,265,2165,30,-149,85,-142,-8378.521,7778.028,8824.702,7737.101,158,-71,37
29.185150,205,2078,55,-212,82,-132,-8352.899,7782.478,8862.041,7717.627
29.205139,219,2044,91,-275,70,-105,-8323.250,7794.205,8898.735,7695.571
29.225128,197,2074,79,-295,43,-84,-8292.598,7809.600,8934.295,7671.817
29.245147,166,2070,129,-309,43,-71,-8261.960,7824.044,8968.918,7649.725
29.265136,165,2071,139,-285,32,-93,-8230.248,7832.117,9003.662,7634.819,157,-70,38
29.285156,191,2065,98,-249,22,-143,-8199.222,7832.325,9035.738,7630.093
29.305145,212,2042,82,-175,-1,-177,-8174.480,7827.277,9057.102,7636.488
29.325165,168,2048,92,-69,-31,-162,-8160.933,7819.118,9062.944,7652.388
29.345154,171,2069,10,46,-59,-122,-8161.191,7806.299,9055.291,7674.229
29.365173,109,2074,-55,147,-50,-78,-8173.884,7787.614,9040.205,7697.454,152,-70,41
29.385162,97,2206,-71,215,-19,-55,-8194.834,7761.899,9022.152,7722.293
29.405151,9,2232,0,258,17,-65,-8217.959,7727.462,9010.353,7745.997
29.425171,56,2160,-34,251,78,-111,-8237.197,7686.011,9013.394,7763.245
29.445160,93,2092,-65,176,145,-163,-8251.993,7641.654,9031.692,7770.052
29.465179,85,2019,4,104,225,-182,-8266.254,7595.941,9059.286,7767.592,152,-84,45
29.485168,85,2147,-1,62,268,-185,-8278.827,7547.915,9095.663,7758.500
29.505188,29,2208,70,16,323,-212,-8285.798,7497.154,9143.074,7744.538
29.525177,17,2213,98,-47,353,-250,-8283.274,7447.147,9204.271,7722.966
29.545196,-6,2210,97,-146,384,-284,-8272.489,7401.626,9277.288,7690.852,152,-84,45,40185
29.565185,49,2070,159,-241,413,-276,-8259.218,7360.111,9358.337,7646.636,157,-74,29
29.585174,61,2043,190,-296,453,-243,-8251.221,7321.850,9439.472,7592.079
29.605194,64,2106,222,-288,490,-188,-8253.327,7283.571,9514.360,7532.899
29.625183,97,2122,261,-244,517,-135,-8264.120,7243.981,9582.717,7472.350
29.645202,145,2077,238,-190,525,-109,-8280.608,7202.023,9644.949,7414.363
29.665191,137,2074,174,-141,507,-99,-8302.553,7158.088,9697.657,7363.441,151,-73,42
29.685180,167,2078,235,-63,479,-88,-8329.460,7111.732,9739.038,7323.246
29.705200,131,2137,215,19,426,-97,-8358.601,7061.596,9772.163,7294.375
29.725219,154,2165,178,77,386,-117,-8385.273,7010.275,9801.020,7274.523
29.745208,85,2158,175,93,332,-147,-8405.577,6958.237,9828.640,7263.777
29.765228,51,2133,190,97,287,-198,-8419.489,6904.367,9856.614,7261.165,143,-67,59
29.785217,28,2096,175,95,258,-233,-8430.377,6850.911,9884.539,7261.204
29.805206,-1,2010,174,88,245,-234,-8440.095,6798.794,9913.208,7259.815
29.825195,-24,2041,183,72,258,-223,-8451.065,6748.795,9942.135,7254.146
29.845215,-79,2051,245,59,275,-194,-8464.287,6699.845,9972.038,7243.052
29.865234,-96,2054,195,49,301,-181,-8476.440,6649.279,10007.565,7226.418,146,-87,74
29.885223,-84,2050,258,20,335,-196,-8487.305,6594.541,10049.334,7205.831
29.905212,-77,1969,217,0,378,-212,-8499.433,6537.349,10093.157,7182.361
29.925232,-43,2056,196,8,399,-208,-8515.369,6478.586,10136.397,7155.787
29.945221,-80,2096,242,22,418,-192,-8535.440,6418.178,10178.238,7126.861
29.965301,-89,2115,220,36,439,-179,-8556.367,6355.586,10219.964,7098.089,136,-74,59
29.985229,-44,2042,160,46,444,-192,-8579.004,6291.432,10257.845,7073.231
30.005249,15,1964,73,88,415,-191,-8608.926,6227.221,10286.000,7052.783
30.025238,29,2025,-18,165,388,-149,-8651.129,6167.050,10298.801,7035.310
30.045257,18,2060,40,246,356,-73,-8702.242,6110.883,10300.053,7019.433,136,-74,59,40185
30.065246,20,2070,-16,291,327,-30,-8754.154,6058.315,10295.979,7006.414,131,-84,80
30.085266,21,2152,-117,293,293,-31,-8798.755,6010.027,10289.857,7001.125
30.105285,16,2111,-119,267,227,-65,-8832.808,5968.235,10283.034,7004.020
30.125274,-44,2050,-56,225,150,-76,-8856.798,5937.442,10275.992,7010.228
30.145263,-18,2069,-132,161,88,-61,-8873.962,5917.609,10270.024,7014.038
30.165252,-54,2177,-12,102,67,-29,-8884.751,5906.133,10269.863,7010.287,126,-89,68
30.185272,-92,2195,-72,11,73,-18,-8884.589,5897.404,10281.043,7001.449
30.205261,-44,2098,-81,-79,98,-56,-8874.392,5889.295,10304.826,6986.226
30.225281,-16,2075,-30,-161,131,-67,-8863.011,5884.078,10334.330,6961.444
30.245270,-25,2124,3,-188,164,-23,-8854.490,5882.555,10365.305,6927.441
30.265289,8,2161,45,-212,195,14,-8844.181,5882.087,10399.811,6889.184,121,-81,68
30.285278,43,2112,65,-246,210,-4,-8827.316,5880.780,10439.730,6851.452
30.305298,0,2285,362,-271,197,-38,-8806.224,5878.790,10482.140,6815.454
30.325317,74,3068,535,-277,191,-52,-8776.214,5889.835,10529.858,6770.926
30.345306,381,3432,510,-408,197,34,-8754.059,5929.838,10575.182,6693.609
30.365265,797,2945,578,-407,232,353,-8797.539,6008.859,10582.721,6552.737,138,-86,64
30.385284,1450,2164,75,-293,522,1056,-8947.808,6139.008,10542.139,6288.723
30.405304,2131,1701,-455,7,961,2060,-9276.812,6290.105,10398.531,5889.084
30.425293,2730,1729,-732,744,1716,3135,-9810.251,6327.465,10160.869,5377.205
30.445312,3157,2451,-1102,1973,2805,3279,-10439.972,6175.610,9863.725,4900.120
30.465301,3824,2231,-1181,2577,3111,2479,-10982.952,5933.737,9589.184,4544.063,132,-83,90
30.485321,3144,1691,-1639,2415,2624,1483,-11405.601,5647.764,9373.566,4311.232
30.505310,3161,1721,-1273,2019,2109,566,-11672.005,5411.962,9220.564,4229.846
30.525299,2651,1890,-963,1437,1129,-36,-11796.320,5288.891,9128.539,4240.243
30.545318,1784,1896,-757,716,326,-279,-11804.292,5248.605,9098.596,4331.491,132,-83,90,40189
30.565307,1141,1610,-710,182,-431,-676,-11710.693,5257.611,9125.705,4513.769,216,-51,66
30.585327,785,1507,-810,-255,-941,-1124,-11543.223,5289.453,9196.789,4757.120
30.605316,458,1438,-601,-573,-1226,-1408,-11338.934,5335.712,9289.230,5010.428
30.625335,276,1647,-424,-729,-1161,-1387,-11127.282,5374.387,9408.126,5217.485
30.645324,102,1611,-353,-933,-906,-1224,-10927.992,5391.276,9561.247,5341.452
30.665313,262,1491,-272,-1128,-369,-1005,-10743.957,5372.039,9754.100,5385.307,234,-71,17
30.685333,484,1414,-241,-1297,127,-914,-10575.677,5322.349,9969.944,5372.459
30.705353,605,1457,-27,-1315,422,-821,-10428.157,5258.158,10183.805,5322.672
30.725342,657,1352,6,-1261,596,-685,-10297.765,5191.717,10389.091,5244.457
30.745331,740,1151,-36,-1221,696,-557,-10177.575,5127.530,10584.277,5151.108
30.765350,812,943,-123,-1168,717,-475,-10072.781,5063.537,10757.654,5060.432,198,-71,40
30.785370,851,877,-106,-983,657,-435,-9993.632,5002.105,10893.091,4988.211
30.805359,802,852,-33,-693,538,-362,-9944.295,4953.996,10981.829,4940.018
30.825348,735,951,-80,-403,346,-255,-9917.559,4922.000,11029.009,4920.602
30.845367,631,1139,-41,-171,142,-202,-9902.773,4902.495,11047.571,4928.208
30.865356,516,1347,6,-41,-20,-188,-9889.404,4894.079,11050.621,4956.497,173,-72,82
30.885376,365,1449,35,1,-144,-188,-9867.938,4896.514,11050.120,4997.822
30.905365,240,1454,64,-43,-241,-199,-9829.926,4907.305,11057.143,5046.378
30.925354,183,1408,41,-154,-300,-239,-9775.855,4921.663,11076.076,5095.672
