;Title, http://www.gcdataconcepts.com, HAM-IMU, MPU-9250
;Version, 1191, Build date, Nov 15 2016,  SN:CCDC30163044EA8
;Start_time, 2007-01-05, 08:04:46.377
;Temperature, -999.00, deg C,  Vbat, 4122, mv
;MPU SR, 200,Hz,  Accel sens, 2048,counts/g, Gyro sens, 16,counts/dps,  Mag SR, 10,Hz,  Mag sens, 1666,counts/mT
;Deadband, 0, counts
;DeadbandTimeout, 5,sec
;Time, Ax, Ay, Az, Gx, Gy, Gz, Qw, Qx, Qy, Qz, Mx, My, Mz, T
0.001525,62,2101,197,-52,30,-46,-8751.747,-8631.397,8070.759,-7225.247
0.018951,58,2099,179,-22,52,-94,-8751.153,-8647.742,8060.170,-7218.237
0.038940,51,2092,175,-35,58,-126,-8751.154,-8668.930,8047.311,-7207.161
0.058929,84,2124,175,-49,65,-160,-8751.482,-8693.971,8033.474,-7192.019,248,-73,187
0.078949,74,2100,215,-72,65,-183,-8750.834,-8721.554,8021.428,-7172.831
0.098938,68,2082,215,-101,57,-187,-8747.718,-8749.908,8013.259,-7151.199
0.118927,65,2071,169,-126,50,-174,-8743.015,-8776.943,8008.705,-7128.887
0.138946,68,2055,208,-132,39,-155,-8738.331,-8800.965,8006.522,-7107.434
0.158935,36,2117,273,-128,26,-141,-8733.958,-8823.925,8006.427,-7084.410,247,-74,197
0.178924,40,2118,259,-141,11,-141,-8728.485,-8847.810,8010.155,-7057.100
0.198913,23,2065,273,-182,-3,-142,-8721.369,-8874.295,8017.550,-7024.166
0.218933,26,2016,283,-217,-14,-153,-8714.363,-8901.085,8026.065,-6989.154
0.238922,33,1979,275,-213,-21,-154,-8708.264,-8925.598,8034.370,-6955.872
0.258941,17,1952,277,-193,-22,-138,-8703.145,-8944.769,8042.468,-6928.241,243,-71,196
0.278930,5,1987,306,-153,-29,-104,-8700.762,-8956.713,8049.596,-6907.493
0.298919,10,2029,328,-98,-38,-76,-8701.398,-8962.297,8055.086,-6893.034
0.319000,8,2028,338,-55,-44,-54,-8703.071,-8964.488,8060.339,-6881.924
0.338989,-5,2062,324,-42,-49,-36,-8704.113,-8964.738,8067.322,-6872.090
0.358917,16,2071,359,-45,-52,-20,-8703.926,-8963.454,8076.006,-6863.798,231,-73,198
0.378936,14,2040,330,-44,-50,-2,-8701.990,-8959.846,8086.352,-6858.781
0.398925,29,2037,358,-36,-46,27,-8698.546,-8954.001,8097.919,-6857.134
0.418914,33,2024,377,-30,-43,44,-8694.251,-8947.321,8111.023,-6855.812,231,-73,198,33970
0.438964,30,2010,335,-38,-45,56,-8688.079,-8939.354,8124.670,-6857.871
0.458923,14,1986,388,-21,-28,78,-8679.827,-8931.191,8136.893,-6864.462
0.478942,24,1952,371,-11,-5,86,-8672.094,-8924.505,8145.317,-6872.934,235,-81,199
0.498901,1,1972,364,12,9,67,-8667.150,-8919.308,8147.326,-6883.528
0.518920,5,1988,345,47,29,36,-8666.161,-8916.795,8141.240,-6895.221
0.538940,7,2012,333,77,47,-5,-8667.728,-8917.259,8128.708,-6907.425
0.558929,47,2032,288,92,64,-32,-8670.597,-8918.897,8112.437,-6920.825
0.578918,30,2014,259,108,75,-36,-8672.959,-8920.786,8093.970,-6937.033,222,-76,212
0.598938,28,1997,264,119,92,-35,-8675.562,-8923.151,8072.695,-6955.504
0.618927,41,2016,329,136,102,-42,-8680.044,-8924.020,8049.387,-6975.779
0.638916,14,2037,305,156,100,-38,-8686.065,-8922.694,8024.994,-6998.051
0.658935,58,2041,255,176,95,-34,-8694.019,-8918.449,8000.818,-7021.228
0.678924,65,2050,188,190,75,-27,-8704.637,-8910.231,7978.108,-7044.309,237,-81,213
0.698913,62,2055,210,200,51,-16,-8717.087,-8897.704,7958.077,-7067.369
0.718902,63,2049,227,207,23,0,-8732.613,-8880.646,7940.362,-7089.546
0.738922,31,2050,230,213,-9,6,-8751.724,-8859.393,7924.833,-7109.918
0.758941,65,2030,164,221,-44,7,-8775.641,-8834.293,7910.365,-7127.758
0.778900,70,2047,148,237,-81,0,-8805.498,-8804.598,7895.781,-7143.832,233,-65,208
0.798889,79,2071,179,264,-120,-10,-8840.940,-8769.872,7882.555,-7157.365
0.818908,43,2150,140,268,-162,-11,-8878.147,-8732.688,7873.497,-7166.738
0.838897,33,2135,168,242,-192,-5,-8912.992,-8696.800,7870.224,-7170.722
0.858886,36,2028,113,189,-200,-5,-8943.875,-8665.045,7870.622,-7170.274
0.878906,1,2053,114,155,-194,-10,-8972.802,-8636.570,7869.593,-7169.618,236,-73,196
0.898895,-17,2099,123,156,-165,-19,-8998.553,-8613.963,7864.398,-7170.241
0.918914,-30,2131,127,140,-115,-38,-9018.224,-8600.986,7855.791,-7170.541,236,-73,196,33958
0.938903,-43,2142,111,100,-55,-62,-9029.263,-8599.729,7845.003,-7169.967
0.958923,-30,2098,117,50,14,-80,-9031.501,-8610.017,7831.060,-7170.042
0.978912,-20,2088,114,20,88,-96,-9027.843,-8629.424,7811.668,-7172.474,229,-73,187
0.998901,40,2014,83,9,148,-118,-9020.112,-8655.951,7787.982,-7175.992
1.018920,31,2042,117,0,189,-134,-9011.965,-8683.926,7759.936,-7182.808
1.038909,25,2095,135,35,207,-137,-9006.160,-8711.263,7727.136,-7192.342
1.058898,22,2080,103,55,211,-154,-9000.662,-8741.836,7693.060,-7198.656
1.078887,22,2092,129,26,216,-182,-8995.152,-8777.213,7658.230,-7199.632,226,-55,195
1.098907,38,2065,104,5,216,-215,-8992.176,-8815.292,7621.307,-7196.006
1.118896,28,2101,117,5,207,-250,-8992.562,-8854.337,7581.600,-7189.528
1.138885,25,2072,91,8,198,-276,-8995.481,-8894.335,7541.851,-7178.303
1.158905,-8,2019,68,-3,177,-298,-9001.679,-8934.021,7502.034,-7162.958
1.178924,-2,2091,107,0,154,-317,-9012.917,-8970.337,7460.987,-7146.292,237,-65,179
1.198883,-15,2061,136,25,125,-324,-9026.575,-9002.596,7422.295,-7128.756
1.218902,-35,2046,90,22,97,-309,-9040.486,-9030.485,7387.835,-7111.629
1.238891,-24,2034,113,28,75,-275,-9053.986,-9051.928,7357.786,-7098.333
1.258911,-34,2042,108,44,56,-227,-9066.970,-9066.249,7332.806,-7089.328
1.278900,-61,2039,126,53,33,-174,-9075.840,-9075.078,7316.378,-7083.651,223,-70,176
1.298919,-63,2133,130,25,22,-112,-9078.538,-9080.820,7309.168,-7080.277
1.318908,-63,2164,120,1,13,-54,-9076.022,-9083.016,7309.652,-7080.187
1.338897,-66,2145,188,-23,11,4,-9066.416,-9084.626,7318.651,-7081.135
1.358886,-40,2072,148,-69,14,48,-9050.425,-9086.132,7335.686,-7082.030
1.378906,-43,2054,147,-100,11,88,-9030.233,-9084.664,7359.570,-7084.909,220,-71,180
1.398895,-27,2044,146,-117,2,135,-9005.947,-9079.541,7389.146,-7091.600
1.418884,-50,2005,104,-118,-1,187,-8979.047,-9070.539,7422.785,-7102.093,220,-71,180,33964
1.438903,-50,2059,135,-114,-1,222,-8952.706,-9059.040,7456.142,-7115.070
1.458892,-54,2052,189,-94,-3,225,-8927.885,-9048.312,7487.141,-7127.346
1.478881,-79,2015,127,-97,-1,196,-8904.378,-9042.305,7515.068,-7134.981,220,-61,173
1.498901,-76,2064,160,-109,5,156,-8883.823,-9040.069,7537.716,-7139.544
1.518890,-105,2141,180,-97,13,112,-8865.944,-9042.215,7553.793,-7142.060
1.538940,-133,2233,217,-93,36,67,-8846.977,-9052.523,7564.826,-7140.844
1.558868,-165,2172,185,-123,74,17,-8824.789,-9075.106,7570.824,-7133.274
1.578887,-182,2090,204,-167,122,-44,-8798.341,-9109.492,7570.635,-7122.306,211,-70,185
1.598876,-175,2036,183,-193,184,-86,-8767.444,-9153.004,7562.517,-7113.242
1.618865,-187,1993,191,-187,250,-113,-8734.217,-9203.481,7544.211,-7108.424
1.638885,-185,1991,248,-157,314,-148,-8700.169,-9259.906,7513.935,-7108.967
1.658874,-214,2035,255,-118,378,-180,-8663.374,-9322.088,7473.365,-7115.396
1.678894,-239,2056,262,-98,450,-200,-8620.797,-9391.735,7424.872,-7126.279,223,-62,176
1.698883,-210,2100,264,-100,523,-220,-8572.023,-9469.649,7368.751,-7140.245
1.718902,-229,2042,263,-102,597,-241,-8516.304,-9556.002,7304.858,-7157.505
1.738891,-232,1993,249,-110,673,-262,-8454.487,-9650.882,7233.727,-7175.705
1.758880,-217,1910,288,-122,733,-296,-8389.615,-9752.333,7153.650,-7194.934
1.778869,-230,1896,270,-110,785,-331,-8321.771,-9859.500,7064.242,-7215.976,229,-68,198
1.798858,-290,1987,229,-101,841,-363,-8250.010,-9973.712,6965.584,-7237.297
1.818878,-327,2239,258,-103,904,-404,-8175.281,-10094.724,6853.930,-7260.881
1.838867,-380,2287,326,-69,976,-454,-8096.044,-10222.371,6728.866,-7288.003
1.858856,-406,2263,314,-69,1062,-493,-8004.256,-10364.140,6593.642,-7312.715
1.878875,-423,2055,228,-125,1170,-539,-7900.108,-10519.902,6446.612,-7334.614,228,-74,192
1.898864,-361,1864,207,-154,1279,-592,-7786.985,-10683.194,6284.629,-7360.100
1.918884,-299,1846,204,-116,1371,-619,-7670.126,-10844.030,6108.839,-7395.519,228,-74,192,33964
1.938873,-264,1910,226,-34,1421,-616,-7548.056,-10996.365,5927.684,-7443.440
1.958862,-240,2020,278,33,1453,-557,-7418.122,-11140.303,5748.048,-7500.699
1.978881,-204,2045,297,48,1468,-490,-7280.352,-11277.989,5574.522,-7560.659,231,-80,207
1.998870,-211,2045,311,34,1464,-433,-7137.670,-11409.895,5408.805,-7618.939
2.018890,-249,2040,296,16,1438,-391,-6994.284,-11536.056,5248.637,-7673.763
2.038879,-254,2058,290,0,1404,-371,-6850.452,-11658.435,5090.878,-7724.673
2.058868,-241,2030,341,-12,1390,-370,-6706.874,-11777.418,4933.085,-7772.411
2.078857,-221,2052,352,-11,1371,-371,-6563.798,-11892.103,4777.677,-7816.884,236,-85,216
2.098876,-203,2047,325,-24,1342,-357,-6421.043,-12001.445,4627.788,-7858.406
2.118865,-186,2026,292,-30,1306,-327,-6279.348,-12102.584,4484.492,-7900.760
2.138855,-183,2016,290,-6,1263,-286,-6141.713,-12193.790,4346.442,-7945.735
2.158874,-184,1989,274,28,1212,-258,-6010.991,-12274.740,4213.141,-7992.723
2.178863,-182,2007,292,64,1147,-241,-5887.995,-12346.450,4085.605,-8039.897,243,-85,210
2.198883,-170,2040,331,83,1078,-221,-5770.172,-12410.647,3966.896,-8085.798
2.218872,-122,2087,342,80,1013,-181,-5655.622,-12468.650,3861.691,-8128.313
2.238861,-79,2103,362,51,941,-127,-5544.488,-12521.061,3773.444,-8165.674
2.258880,-19,2083,364,11,850,-66,-5439.219,-12567.686,3704.829,-8196.210
2.278869,23,2078,397,-33,738,-2,-5344.679,-12606.486,3658.959,-8219.389,255,-87,212
2.298858,67,2034,420,-66,583,60,-5269.045,-12633.937,3638.446,-8235.165
2.318847,79,2002,411,-80,378,113,-5218.065,-12647.380,3642.455,-8245.213
2.338867,70,2012,392,-70,160,154,-5194.336,-12645.887,3668.603,-8250.890
2.358856,60,2016,400,-52,-53,178,-5197.077,-12630.683,3715.260,-8251.576
2.378845,75,2040,361,-41,-256,201,-5225.143,-12602.537,3782.150,-8246.497,278,-81,213
2.398864,100,2063,348,-37,-456,223,-5277.012,-12562.573,3868.992,-8234.150
2.418853,79,2019,371,-44,-646,247,-5352.125,-12511.039,3975.100,-8213.566,278,-81,213,33970
2.438842,79,2000,324,-50,-834,262,-5450.001,-12446.847,4098.933,-8185.820
2.458862,59,2037,332,-39,-1016,278,-5568.501,-12368.372,4237.888,-8154.195
2.478881,30,2032,280,-11,-1170,300,-5704.099,-12276.735,4388.580,-8119.164,280,-89,218
2.498870,-9,2029,301,12,-1293,317,-5850.096,-12174.096,4548.618,-8081.662
2.518859,-66,2040,296,27,-1374,341,-6000.684,-12063.305,4714.242,-8042.376
2.538848,-69,2034,313,38,-1413,360,-6151.555,-11946.557,4880.325,-8003.500
2.558868,-114,2063,266,61,-1413,370,-6298.903,-11826.931,5041.572,-7966.524
2.578887,-132,2064,241,83,-1371,364,-6438.775,-11707.825,5192.981,-7933.309,289,-77,224
2.598846,-167,2063,273,105,-1291,349,-6568.064,-11592.830,5330.583,-7904.880
2.618865,-179,2093,290,124,-1179,318,-6685.339,-11485.980,5450.142,-7880.982
2.638855,-183,2070,274,136,-1044,271,-6788.523,-11390.847,5550.608,-7860.708
2.658844,-186,2118,275,129,-899,218,-6877.124,-11309.135,5632.366,-7843.500
2.678863,-166,2110,296,123,-753,163,-6952.071,-11240.697,5696.544,-7829.448,284,-90,219
2.698852,-159,2103,285,111,-613,117,-7011.337,-11187.448,5746.146,-7816.610
2.718841,-128,2020,247,70,-474,77,-7055.153,-11148.580,5784.136,-7804.690
2.738861,-133,1930,219,40,-351,55,-7087.528,-11120.529,5811.172,-7795.286
2.758911,-108,1905,263,32,-258,22,-7113.383,-11099.982,5827.812,-7788.595
2.778839,-81,1923,238,38,-189,-8,-7136.292,-11083.499,5836.677,-7784.474,255,-90,216
2.798858,-55,1986,267,52,-152,-27,-7156.177,-11068.520,5842.994,-7782.791
2.818847,-66,2041,295,50,-129,-18,-7171.307,-11055.053,5852.629,-7780.765
2.838836,-59,2196,303,17,-121,8,-7182.320,-11043.214,5866.518,-7776.960
2.858825,-106,2359,356,-7,-121,22,-7190.999,-11032.661,5882.319,-7771.980
2.878845,-123,2341,433,-27,-114,25,-7194.067,-11027.445,5902.542,-7761.203,249,-81,218
2.898834,-122,2111,345,-114,-101,31,-7187.214,-11033.194,5930.519,-7738.021
2.918853,-153,1941,293,-231,-78,37,-7174.708,-11045.660,5959.772,-7709.313,249,-81,218,33968
2.938842,-207,1900,301,-241,-52,24,-7164.303,-11058.613,5978.695,-7685.732
2.958862,-279,1939,328,-174,-17,-19,-7158.360,-11073.120,5980.817,-7668.713
2.978851,-327,2035,335,-101,38,-89,-7151.860,-11094.442,5964.929,-7656.325,256,-77,213
2.998840,-353,2067,342,-80,131,-151,-7134.354,-11128.416,5935.262,-7646.401
3.018859,-379,2084,400,-109,259,-187,-7100.082,-11178.631,5893.288,-7637.515
3.038848,-367,2122,419,-158,405,-219,-7047.618,-11246.130,5840.314,-7627.700
3.058837,-337,2144,420,-222,542,-249,-6976.214,-11330.113,5779.978,-7615.002
3.078826,-279,2127,442,-304,663,-263,-6886.025,-11428.230,5716.597,-7598.300,249,-77,218
3.098846,-235,2032,447,-388,763,-259,-6780.037,-11536.249,5652.904,-7578.006
3.118835,-192,1925,456,-449,831,-246,-6665.130,-11647.777,5587.879,-7557.537
3.138855,-171,1903,515,-448,866,-240,-6549.357,-11755.860,5518.459,-7542.394
3.158844,-150,1884,455,-386,876,-241,-6438.064,-11856.845,5441.738,-7535.880
3.178863,-173,1930,489,-304,876,-254,-6332.789,-11951.258,5356.798,-7536.799,252,-84,224
3.198852,-172,1987,538,-233,867,-278,-6232.013,-12042.225,5264.964,-7540.717
3.218841,-158,2006,548,-206,867,-309,-6133.960,-12133.006,5168.219,-7542.522
3.238830,-169,2017,580,-209,862,-341,-6038.436,-12224.348,5068.450,-7539.818
3.258850,-182,2009,584,-220,851,-370,-5945.278,-12316.165,4966.262,-7532.424
3.278839,-165,1999,577,-233,839,-397,-5854.252,-12407.655,4862.296,-7521.391,260,-90,230
3.298828,-187,1958,587,-236,826,-415,-5766.143,-12497.432,4756.186,-7508.656
3.318847,-212,1944,593,-224,814,-430,-5680.608,-12584.629,4647.020,-7496.562
3.338836,-217,1900,577,-200,809,-443,-5598.003,-12667.271,4535.479,-7487.821
3.358825,-212,1899,593,-157,798,-440,-5517.843,-12742.676,4424.597,-7485.718
3.378845,-167,1925,616,-103,774,-406,-5440.432,-12808.662,4319.201,-7491.315,265,-95,251
3.398834,-187,1940,634,-55,733,-353,-5366.295,-12865.384,4223.184,-7502.328
3.418823,-180,1939,645,-26,683,-295,-5295.532,-12914.548,4137.503,-7515.869,265,-95,251,33964
3.438842,-190,1962,685,-17,629,-245,-5229.646,-12957.068,4062.212,-7529.878
3.458831,-175,1979,658,-9,565,-206,-5169.049,-12993.922,3997.129,-7543.029
3.478851,-170,1944,644,-13,505,-166,-5113.122,-13025.540,3942.546,-7555.332,268,-100,245
3.498840,-202,1973,639,-16,442,-126,-5062.038,-13052.592,3896.775,-7566.782
3.518829,-208,1953,649,-18,396,-97,-5014.031,-13076.880,3857.301,-7577.029
3.538818,-214,1972,674,-26,368,-77,-4966.044,-13100.719,3822.602,-7585.032
3.558837,-203,1999,652,-51,354,-59,-4916.904,-13125.102,3792.816,-7589.843
3.578826,-172,1992,645,-76,343,-41,-4867.377,-13150.036,3768.690,-7590.626,276,-106,262
3.598846,-145,1983,630,-109,323,-19,-4817.545,-13175.239,3752.068,-7586.947
3.618804,-140,1953,674,-143,292,11,-4770.200,-13199.099,3744.669,-7579.040
3.638824,-131,1937,648,-166,242,41,-4728.321,-13219.798,3746.511,-7568.290
3.658844,-144,1921,687,-171,180,64,-4693.666,-13236.546,3754.674,-7556.534
3.678833,-155,1910,677,-164,127,77,-4665.653,-13250.097,3766.211,-7544.381,284,-106,260
3.698822,-176,1919,682,-152,85,72,-4643.587,-13260.616,3778.236,-7533.493
3.718811,-197,1915,701,-126,60,66,-4625.670,-13268.206,3788.568,-7525.959
3.738830,-185,1919,639,-91,48,56,-4610.758,-13272.650,3795.880,-7523.589
3.758819,-180,1923,697,-49,47,50,-4597.527,-13273.898,3800.214,-7527.297
3.778808,-202,1927,659,-8,56,44,-4583.055,-13273.730,3801.105,-7535.961,282,-105,257
3.798828,-166,1944,646,18,81,42,-4564.160,-13273.782,3799.293,-7548.241
3.818817,-181,1953,613,24,121,51,-4538.724,-13274.813,3796.928,-7562.942
3.838806,-155,2010,614,22,152,71,-4507.617,-13276.779,3795.672,-7578.708
3.858825,-109,2025,631,9,176,92,-4470.059,-13280.731,3797.266,-7593.219
3.878814,-55,2037,677,-23,197,121,-4426.938,-13287.854,3804.315,-7602.484,295,-114,260
3.898834,-15,2015,678,-80,195,143,-4383.374,-13297.881,3819.280,-7602.692
3.918823,31,2006,664,-141,153,157,-4346.425,-13308.664,3840.593,-7594.295,295,-114,260,33970
3.938812,85,2021,702,-174,85,146,-4320.728,-13318.574,3868.950,-7577.173
3.958831,142,2061,683,-212,-13,141,-4310.054,-13325.424,3912.065,-7549.018
3.978881,118,2065,718,-264,-161,167,-4317.511,-13328.495,3976.240,-7505.681,293,-114,255
3.998809,67,2058,679,-338,-336,200,-4342.270,-13328.426,4063.187,-7444.709
4.018798,-15,1931,709,-428,-492,240,-4379.493,-13326.932,4166.587,-7368.033
4.038818,-38,1886,696,-493,-596,255,-4426.158,-13323.911,4276.692,-7282.023
4.058807,-74,1908,746,-510,-658,242,-4480.100,-13318.602,4385.079,-7193.752
4.078796,-72,1924,761,-490,-679,214,-4535.975,-13312.046,4489.622,-7105.848,305,-114,260
4.098815,-84,1905,765,-484,-670,200,-4588.736,-13307.061,4591.719,-7015.495
4.118804,-102,1869,836,-512,-647,192,-4637.867,-13303.916,4691.877,-6922.263
4.138824,-52,1828,818,-523,-630,183,-4684.201,-13301.458,4789.520,-6828.281
4.158813,-99,1768,867,-521,-609,178,-4728.383,-13298.091,4882.038,-6738.272
4.178802,-137,1763,881,-478,-579,163,-4771.721,-13292.471,4965.793,-6657.118,313,-124,268
4.198822,-166,1769,902,-410,-534,141,-4811.622,-13285.602,5038.824,-6586.861
4.218811,-139,1813,910,-347,-472,123,-4846.678,-13278.003,5102.624,-6527.099
4.238800,-122,1800,958,-294,-414,113,-4876.635,-13269.977,5160.163,-6475.669
4.258789,-136,1800,980,-261,-365,113,-4901.203,-13262.311,5213.310,-6430.097
4.278808,-134,1787,1025,-238,-322,110,-4921.686,-13254.914,5261.751,-6390.122,292,-138,284
4.298797,-139,1777,999,-212,-282,104,-4939.688,-13248.455,5303.958,-6354.635
4.318817,-146,1784,985,-184,-253,82,-4958.151,-13242.453,5338.555,-6323.720
4.338806,-136,1798,990,-151,-230,46,-4977.857,-13237.501,5365.705,-6295.566
4.358795,-150,1775,992,-129,-216,15,-4997.949,-13233.521,5387.288,-6269.527
4.378784,-145,1770,1000,-110,-201,-5,-5018.034,-13229.713,5405.293,-6245.980,286,-152,313
4.398803,-153,1781,1006,-95,-186,-13,-5037.197,-13225.612,5420.608,-6225.936
4.418792,-159,1772,1012,-72,-169,-14,-5054.697,-13221.218,5433.524,-6209.804,286,-152,313,33992
4.438812,-157,1778,992,-55,-148,-13,-5070.233,-13216.365,5444.401,-6197.931
4.458801,-160,1786,1001,-31,-125,-9,-5083.911,-13211.062,5453.486,-6190.040
4.478790,-161,1764,990,-15,-108,-4,-5096.273,-13205.225,5460.808,-6185.873,281,-159,313
4.498809,-163,1760,982,4,-94,-5,-5108.244,-13199.015,5465.936,-6184.725
4.518798,-148,1789,1008,22,-81,-7,-5120.319,-13191.937,5468.796,-6187.311
4.538787,-146,1797,991,50,-76,-10,-5133.456,-13183.647,5469.296,-6193.652
4.558807,-153,1796,967,70,-71,-14,-5147.581,-13174.512,5468.288,-6202.250
4.578796,-163,1821,1006,87,-71,-17,-5162.509,-13164.787,5466.193,-6212.330,278,-150,312
4.598785,-157,1801,1003,94,-70,-20,-5177.629,-13154.655,5464.220,-6222.936
4.618804,-173,1787,980,101,-73,-17,-5193.628,-13142.351,5463.996,-6235.784
4.638793,-167,1785,983,120,-81,-2,-5211.054,-13127.681,5464.301,-6251.860
4.658782,-187,1833,955,138,-86,8,-5229.120,-13111.761,5465.282,-6269.301
4.678802,-190,1796,998,142,-89,17,-5246.230,-13095.021,5468.062,-6287.545,262,-154,313
4.698791,-165,1753,969,142,-87,33,-5262.132,-13075.853,5473.631,-6309.265
4.718780,-163,1772,960,166,-88,66,-5279.212,-13051.195,5481.917,-6338.789
4.738800,-193,1768,977,230,-94,99,-5298.546,-13020.487,5489.867,-6378.801
4.758789,-182,1758,926,292,-92,119,-5320.024,-12985.118,5495.765,-6427.755
4.778808,-185,1780,909,348,-85,124,-5342.447,-12946.018,5498.988,-6485.017,259,-155,307
4.798797,-186,1791,872,403,-74,137,-5364.844,-12903.140,5499.690,-6551.052
4.818786,-196,1826,884,453,-55,148,-5386.752,-12856.897,5497.778,-6625.176
4.838775,-166,1852,858,497,-36,161,-5406.701,-12808.261,5494.244,-6705.574
4.858795,-162,1875,826,519,-15,174,-5422.119,-12759.691,5489.920,-6788.750
4.878784,-159,1884,838,519,12,183,-5433.640,-12712.454,5483.335,-6872.956,268,-148,314
4.898803,-136,1889,751,516,39,176,-5442.358,-12667.354,5472.619,-6957.352
4.918792,-129,1900,745,519,66,156,-5450.208,-12624.210,5456.327,-7041.908,268,-148,314,33980
4.938781,-111,1931,721,520,86,126,-5457.708,-12583.897,5435.054,-7124.224
4.958801,-95,1966,714,506,97,95,-5465.628,-12547.195,5410.826,-7200.916
4.978790,-66,1977,711,473,93,64,-5474.681,-12513.939,5385.426,-7270.612,267,-140,299
4.998779,-48,1970,685,435,82,37,-5484.820,-12482.665,5361.860,-7333.873
5.018798,-55,1972,661,403,60,36,-5496.126,-12451.553,5342.794,-7391.982
5.038787,-56,1962,640,376,33,44,-5508.179,-12419.587,5329.364,-7446.283
5.058776,-61,1949,635,354,7,62,-5521.618,-12387.120,5320.712,-7496.429
5.078796,-71,1970,623,330,-21,70,-5537.606,-12354.174,5315.333,-7542.676,266,-122,284
5.098785,-72,1974,590,317,-47,66,-5556.350,-12321.158,5311.092,-7585.761
5.118774,-63,2018,592,305,-64,58,-5575.735,-12289.106,5308.605,-7625.169
5.138793,-89,2021,594,276,-75,59,-5594.526,-12259.033,5309.516,-7659.102
5.158782,-64,1995,588,237,-86,58,-5612.442,-12231.810,5312.995,-7687.056
5.178772,-95,1992,587,202,-94,55,-5630.405,-12206.828,5317.852,-7710.237,274,-125,272
5.198852,-64,1996,545,175,-105,46,-5649.015,-12183.645,5323.525,-7729.356
5.218780,-62,2015,574,155,-110,37,-5667.600,-12161.788,5330.556,-7745.309
5.238769,-69,2010,585,133,-117,36,-5685.294,-12141.286,5339.916,-7758.049
5.258789,-97,1995,559,107,-123,42,-5702.386,-12122.150,5351.722,-7767.288
5.278808,-98,1988,547,87,-133,42,-5718.933,-12104.322,5364.813,-7773.893,271,-105,261
5.298767,-77,2014,565,69,-131,40,-5734.076,-12088.127,5378.430,-7778.526
5.318786,-95,1995,565,54,-125,40,-5746.068,-12073.328,5393.044,-7782.542
5.338775,-90,2017,556,39,-110,55,-5754.232,-12060.106,5408.781,-7786.089
5.358764,-75,2025,584,24,-95,62,-5758.413,-12048.980,5425.635,-7788.496
5.378784,-43,2026,580,1,-78,75,-5757.455,-12039.930,5444.160,-7790.272,272,-104,260
5.398773,-60,1976,574,-20,-58,92,-5751.384,-12032.259,5464.506,-7792.363
5.418762,-74,1964,546,-31,-38,113,-5741.658,-12024.964,5485.275,-7796.204,272,-104,260,33974
5.438751,-39,1957,537,-26,-22,121,-5731.156,-12017.407,5503.553,-7802.698
5.458770,-48,1964,555,-6,-6,117,-5720.279,-12009.572,5517.561,-7812.845
5.478759,-45,1977,577,19,16,103,-5709.326,-12002.607,5526.368,-7825.324,276,-104,253
5.498779,-35,1997,538,33,35,83,-5697.712,-11997.324,5530.777,-7838.765
5.518798,-24,1993,564,37,55,64,-5685.928,-11994.372,5531.016,-7851.659
5.538787,-30,2002,562,33,66,39,-5673.862,-11993.995,5527.770,-7863.240
5.558776,-13,2017,556,27,81,19,-5662.476,-11995.432,5521.089,-7873.943
5.578765,-13,2001,563,27,88,0,-5651.207,-11998.508,5512.130,-7883.623,273,-105,252
5.598754,-3,1992,558,23,93,-15,-5640.318,-12002.542,5502.159,-7892.241
5.618774,2,1987,563,19,92,-23,-5629.581,-12007.349,5491.975,-7899.686
5.638763,-26,1991,526,12,88,-27,-5619.961,-12012.240,5481.895,-7906.098
5.658752,1,1979,548,9,84,-30,-5611.300,-12016.972,5472.854,-7911.320
5.678772,8,1998,546,3,72,-28,-5603.133,-12021.895,5465.379,-7914.796,276,-102,249
5.698791,7,2012,557,-8,60,-25,-5595.390,-12026.572,5460.342,-7916.646
5.718780,10,2017,580,-20,48,-22,-5588.595,-12031.059,5458.197,-7916.106
5.738769,30,1997,568,-33,30,-15,-5582.627,-12035.871,5458.910,-7912.511
5.758758,21,1974,588,-52,12,-11,-5578.222,-12040.698,5462.470,-7905.814
5.778778,32,1965,581,-65,-9,-10,-5576.297,-12044.191,5469.855,-7896.739,273,-110,261
5.798767,62,1988,584,-71,-42,-2,-5578.331,-12044.988,5481.721,-7885.851
5.818756,82,1961,626,-70,-82,8,-5586.246,-12041.148,5499.384,-7873.805
5.838775,105,1965,588,-61,-144,22,-5603.460,-12031.615,5524.127,-7858.812
5.858764,87,1946,602,-51,-228,29,-5633.046,-12014.702,5556.244,-7840.874
5.878753,67,1944,572,-31,-321,31,-5675.003,-11990.460,5594.178,-7820.730,275,-110,250
5.898742,75,1958,583,-7,-402,33,-5727.288,-11959.980,5636.833,-7798.627
5.918792,41,1965,528,10,-467,33,-5788.070,-11924.088,5683.538,-7774.779,275,-110,250,33986
5.938751,42,1966,519,26,-527,34,-5856.809,-11882.531,5734.181,-7749.699
5.958770,32,1988,532,45,-583,39,-5932.639,-11835.182,5788.223,-7724.258
5.978759,32,1990,522,68,-632,47,-6013.781,-11782.194,5845.866,-7699.067,269,-99,253
5.998748,12,1986,508,82,-671,64,-6097.196,-11724.865,5907.648,-7673.777
6.018768,20,1980,536,87,-693,84,-6180.033,-11664.278,5973.232,-7649.035
6.038757,20,1966,458,87,-702,110,-6261.588,-11601.438,6041.013,-7625.008
6.058746,30,1937,466,90,-707,121,-6343.878,-11537.269,6108.473,-7600.566
6.078735,16,1935,436,96,-711,115,-6427.164,-11472.697,6173.998,-7575.352,275,-108,257
6.098754,7,1915,447,96,-710,101,-6510.531,-11409.608,6236.490,-7548.208
6.118774,-6,1932,435,89,-701,80,-6592.888,-11349.352,6295.922,-7518.165
6.138732,3,2043,441,74,-686,57,-6671.919,-11291.236,6353.261,-7487.656
6.158752,35,2127,495,67,-658,67,-6744.204,-11231.887,6412.177,-7461.892
6.178741,49,2126,520,69,-629,119,-6804.326,-11171.202,6479.121,-7440.552,265,-111,251
6.198761,104,2120,516,26,-593,207,-6848.070,-11110.428,6560.575,-7420.013
6.218750,117,2027,519,-51,-575,310,-6876.584,-11048.723,6658.571,-7398.458
6.238739,116,2052,539,-119,-565,412,-6894.243,-10983.265,6769.446,-7378.843
6.258728,102,2044,476,-137,-568,493,-6908.397,-10912.858,6886.532,-7361.703
6.278747,103,2233,530,-132,-573,527,-6923.616,-10839.193,7001.857,-7347.438,246,-97,249
6.298736,74,2073,549,-96,-576,521,-6940.817,-10762.095,7114.349,-7336.472
6.318725,72,1908,503,-72,-569,527,-6954.973,-10685.950,7225.077,-7326.152
6.338745,86,1828,500,-80,-547,522,-6970.742,-10609.978,7330.548,-7316.802
6.358734,85,1941,545,-36,-543,497,-6994.339,-10530.037,7426.947,-7312.553
6.378753,20,2109,572,43,-545,462,-7026.633,-10448.382,7513.760,-7310.033,236,-102,246
6.398742,-8,2126,600,79,-556,405,-7064.539,-10373.816,7592.598,-7298.226
6.418823,-40,2047,588,35,-558,307,-7105.536,-10311.637,7663.680,-7272.202,236,-102,246,33968
6.438751,-82,1967,546,-18,-552,203,-7149.701,-10260.371,7724.654,-7236.830
6.458740,-104,1946,593,-28,-529,114,-7196.407,-10218.071,7773.436,-7198.047
6.478729,-125,2041,641,-26,-487,38,-7240.561,-10185.154,7812.980,-7157.491,240,-115,252
6.498748,-100,2034,655,-50,-430,-2,-7274.807,-10162.317,7850.135,-7114.443
6.518737,-75,2002,673,-120,-375,-6,-7296.468,-10147.078,7890.746,-7068.940
6.538757,-82,1937,675,-186,-331,20,-7306.307,-10134.209,7936.337,-7026.071
6.558746,-79,1881,668,-207,-284,77,-7308.337,-10120.702,7982.014,-6991.601
6.578735,-101,1882,638,-186,-235,106,-7307.353,-10108.576,8022.341,-6963.961,245,-103,243
6.598754,-86,1892,680,-156,-190,92,-7307.218,-10099.908,8053.088,-6941.154
6.618743,-79,1879,690,-117,-150,55,-7308.928,-10094.651,8073.673,-6923.064
6.638732,-77,1862,684,-78,-110,17,-7311.570,-10091.097,8085.996,-6911.063
6.658721,-50,1882,659,-36,-74,4,-7315.374,-10087.524,8091.747,-6905.521
6.678741,-87,1900,680,7,-44,-4,-7321.009,-10083.780,8091.588,-6905.204,240,-108,252
6.698730,-77,1946,674,43,-27,-22,-7329.368,-10081.878,8085.129,-6906.678
6.718750,-78,1951,654,60,-13,-58,-7341.477,-10084.537,8071.910,-6905.398
6.738739,-89,1952,639,63,-8,-118,-7357.890,-10092.052,8051.629,-6900.626
6.758758,-99,1963,610,72,-4,-172,-7378.369,-10102.359,8024.719,-6895.021
6.778747,-105,1961,596,99,2,-208,-7403.051,-10113.575,7991.654,-6890.525,239,-109,246
6.798767,-110,1978,542,126,5,-238,-7431.397,-10125.558,7953.772,-6886.244
6.818756,-99,2005,528,139,8,-268,-7460.852,-10139.130,7913.470,-6880.854
6.838745,-29,2032,555,134,11,-278,-7487.337,-10152.879,7875.873,-6874.947
6.858734,-33,2055,574,110,13,-250,-7506.523,-10164.883,7846.998,-6869.302
6.878753,-3,2051,553,61,11,-189,-7517.726,-10176.647,7829.223,-6859.909,226,-112,252
6.898742,-16,2048,544,-12,-3,-150,-7523.083,-10190.934,7820.868,-6842.334
6.918731,-4,2001,512,-89,-22,-142,-7523.774,-10209.527,7819.337,-6815.554,226,-112,252,33964
6.938720,-34,2020,500,-160,-30,-147,-7518.914,-10233.537,7822.876,-6780.760
6.958709,-77,2062,508,-230,-24,-152,-7508.172,-10265.260,7828.231,-6738.398
6.978729,-146,2088,534,-299,-1,-184,-7489.969,-10310.617,7831.095,-6685.874,221,-105,250
6.998718,-163,2123,567,-392,50,-251,-7460.912,-10375.905,7829.040,-6619.437
7.018737,-134,2064,633,-515,122,-334,-7417.613,-10462.015,7823.131,-6539.059
7.038726,-127,2011,605,-640,200,-397,-7357.723,-10563.243,7816.978,-6450.743
7.058746,-95,1956,661,-736,278,-406,-7282.671,-10673.178,7811.480,-6360.987
7.078735,-104,1913,707,-790,347,-393,-7195.838,-10789.697,7804.580,-6271.068,223,-103,247
7.098724,-108,1848,749,-822,407,-399,-7103.134,-10911.128,7791.605,-6182.159
7.118713,-84,1826,781,-814,449,-425,-7011.726,-11034.235,7768.433,-6096.575
7.138732,-107,1843,771,-759,471,-470,-6926.746,-11156.051,7733.616,-6015.757
7.158721,-107,1893,799,-690,475,-516,-6848.355,-11275.741,7688.328,-5939.927
7.178710,-135,1905,882,-631,482,-545,-6772.485,-11394.112,7636.343,-5867.652,216,-119,263
7.198730,-104,1862,870,-606,493,-559,-6695.942,-11510.457,7582.356,-5798.020
7.218719,-104,1817,893,-587,499,-540,-6618.504,-11621.193,7530.447,-5733.331
7.238708,-109,1767,872,-563,494,-496,-6540.044,-11725.081,7482.792,-5673.935
7.258728,-132,1783,894,-538,487,-449,-6462.385,-11824.073,7436.932,-5617.503
7.278717,-140,1760,927,-527,477,-434,-6385.205,-11921.220,7390.988,-5560.791,211,-129,275
7.298706,-138,1726,987,-526,471,-440,-6309.849,-12016.220,7344.854,-5503.165
7.318725,-150,1720,993,-511,448,-433,-6239.332,-12106.352,7299.891,-5445.550
7.338745,-172,1692,1018,-490,408,-423,-6175.580,-12191.015,7256.134,-5387.514
7.358703,-191,1690,1038,-469,363,-423,-6117.606,-12272.165,7212.543,-5327.617
7.378723,-242,1677,1108,-460,332,-431,-6063.549,-12351.873,7168.227,-5264.653,214,-146,296
7.398712,-251,1668,1158,-464,306,-445,-6011.269,-12431.474,7124.316,-5196.407
7.418701,-272,1637,1195,-491,288,-453,-5958.528,-12510.590,7083.616,-5122.390,214,-146,296,33974
7.438720,-283,1563,1238,-521,268,-443,-5905.374,-12587.592,7046.795,-5045.511
7.458709,-267,1470,1249,-526,253,-416,-5853.793,-12659.014,7013.862,-4972.285
7.478698,-308,1408,1250,-483,237,-374,-5806.600,-12721.387,6983.842,-4910.304,213,-168,320
7.498687,-304,1438,1243,-395,223,-321,-5766.391,-12773.556,6954.227,-4864.068
7.518707,-299,1477,1294,-290,208,-280,-5733.438,-12816.349,6924.719,-4832.450
7.538696,-260,1477,1285,-200,191,-238,-5705.270,-12851.187,6898.435,-4810.812
7.558715,-279,1444,1272,-154,169,-193,-5680.335,-12880.378,6876.886,-4793.070
7.578704,-304,1381,1274,-134,144,-162,-5660.172,-12905.645,6856.935,-4777.516,208,-190,329
7.598693,-311,1379,1255,-103,116,-159,-5647.991,-12927.650,6833.486,-4766.021
7.618713,-327,1428,1255,-43,91,-176,-5644.458,-12946.108,6805.232,-4760.529
7.638763,-326,1492,1282,17,68,-190,-5648.282,-12960.234,6775.130,-4760.492
7.658721,-357,1482,1308,59,42,-183,-5656.174,-12970.799,6747.545,-4761.527
7.678710,-381,1437,1278,64,14,-163,-5667.071,-12978.294,6723.344,-4762.379,220,-216,340
7.698699,-403,1409,1212,72,-9,-146,-5682.688,-12981.869,6700.814,-4765.779
7.718719,-403,1410,1238,111,-35,-131,-5704.312,-12979.977,6679.442,-4775.091
7.738708,-363,1445,1217,164,-60,-106,-5731.737,-12970.766,6661.088,-4792.886
7.758697,-408,1459,1215,221,-88,-61,-5764.156,-12953.226,6648.540,-4818.794
7.778717,-395,1410,1168,265,-119,-8,-5801.472,-12928.796,6640.324,-4850.844,207,-210,353
7.798706,-398,1398,1141,308,-146,24,-5844.881,-12897.659,6634.103,-4889.975
7.818695,-406,1476,1144,369,-175,53,-5895.581,-12859.521,6627.567,-4938.182
7.838714,-424,1509,1125,441,-198,68,-5952.149,-12816.201,6619.932,-4992.880
7.858703,-435,1544,1098,480,-214,73,-6011.164,-12771.040,6611.204,-5049.142
7.878692,-456,1521,1103,485,-220,70,-6070.383,-12726.061,6601.490,-5104.272,216,-212,342
7.898681,-476,1493,1043,480,-218,64,-6129.106,-12680.780,6591.026,-5160.008
7.918701,-461,1496,1018,499,-212,66,-6189.871,-12633.367,6576.281,-5222.211,216,-212,342,34000
7.938690,-459,1516,993,558,-199,62,-6252.153,-12581.514,6558.307,-5295.293
7.958709,-448,1491,920,625,-184,89,-6314.028,-12524.346,6540.292,-5379.015
7.978698,-399,1405,855,676,-170,134,-6376.230,-12460.220,6524.266,-5473.208,209,-210,339
7.998687,-391,1476,769,734,-173,179,-6441.125,-12387.087,6509.704,-5579.530
8.018676,-372,1690,804,816,-184,227,-6511.762,-12303.313,6494.797,-5698.990
8.038696,-297,2235,945,894,-205,260,-6583.040,-12213.377,6481.805,-5823.971
8.058685,-305,2512,909,893,-211,287,-6643.422,-12125.986,6482.119,-5936.579
8.078704,-329,2562,1058,716,-200,333,-6689.002,-12045.444,6498.655,-6030.542,200,-188,337
8.098693,-341,2468,1022,553,-212,358,-6722.701,-11975.052,6525.423,-6103.909
8.118682,-277,2423,975,426,-199,339,-6751.673,-11912.020,6550.041,-6168.556
8.138702,-196,2507,1007,415,-175,304,-6781.785,-11847.563,6570.355,-6237.670
8.158691,-111,2535,946,465,-171,317,-6811.457,-11776.177,6594.941,-6314.104
8.178680,-103,2538,974,483,-189,384,-6840.037,-11697.821,6630.289,-6391.368,202,-176,319
8.198669,-98,2488,946,459,-232,438,-6868.117,-11617.006,6675.536,-6461.174
8.218688,-101,2259,925,399,-273,448,-6897.066,-11539.333,6724.855,-6518.130
8.238678,-91,1916,848,332,-304,411,-6930.020,-11465.684,6774.566,-6561.525
8.258667,-109,1778,745,297,-346,362,-6972.453,-11392.177,6818.472,-6599.020
8.278686,-126,1908,742,344,-380,304,-7029.943,-11313.639,6849.615,-6640.759,204,-153,282
8.298675,-157,1879,712,455,-412,244,-7101.115,-11229.562,6869.514,-6687.025
8.318664,-137,1672,631,526,-439,203,-7179.538,-11139.979,6885.098,-6736.910
8.338684,-82,1565,545,586,-461,213,-7265.504,-11036.344,6900.214,-6799.560
8.358673,28,1629,525,711,-501,282,-7356.850,-10911.387,6920.841,-6881.552
8.378662,120,1806,570,824,-551,406,-7447.975,-10765.157,6957.378,-6976.343,209,-129,282
8.398681,165,1723,605,839,-622,552,-7536.292,-10601.405,7021.702,-7067.222
8.418701,254,1816,483,754,-757,688,-7626.655,-10419.134,7115.783,-7146.805,209,-129,282,33974
8.438690,239,1851,500,703,-922,798,-7721.443,-10218.477,7235.641,-7214.082
8.458679,240,1810,485,643,-1072,885,-7816.071,-10005.037,7377.103,-7267.878
8.478698,239,1748,396,568,-1178,951,-7910.823,-9781.453,7531.546,-7311.177,204,-119,263
8.498687,261,1975,320,548,-1257,978,-8014.381,-9544.171,7685.382,-7351.791
8.518676,289,2366,314,637,-1324,974,-8128.906,-9291.022,7832.066,-7395.402
8.538696,394,3215,430,722,-1371,972,-8247.456,-9027.495,7973.807,-7438.928
8.558685,300,2731,588,764,-1397,975,-8357.561,-8759.820,8127.520,-7469.644
8.578674,122,2165,369,556,-1450,1012,-8442.815,-8518.101,8302.068,-7461.362,200,-93,236
8.598663,79,1720,165,239,-1448,892,-8526.265,-8308.311,8467.733,-7416.718
8.618682,103,1758,140,177,-1411,651,-8630.096,-8112.041,8596.816,-7365.217
8.638671,98,1963,215,366,-1349,462,-8758.085,-7914.044,8686.871,-7323.766
8.658660,-19,2321,309,579,-1301,346,-8896.596,-7724.537,8752.537,-7280.840
8.678680,-55,2405,346,572,-1241,213,-9027.681,-7563.217,8810.569,-7218.589,223,-86,213
8.698669,-56,2287,334,409,-1159,72,-9137.983,-7433.153,8870.508,-7141.080
8.718688,-46,2108,243,215,-1050,20,-9222.558,-7327.798,8935.021,-7060.356
8.738678,-56,1979,183,74,-918,30,-9285.979,-7237.144,8999.301,-6988.730
8.758697,-35,1926,70,25,-789,77,-9335.643,-7151.719,9057.536,-6935.067
8.778656,9,1933,74,70,-673,139,-9381.024,-7063.919,9102.666,-6904.660,229,-64,196
8.798675,24,1959,58,180,-571,205,-9424.168,-6970.802,9135.917,-6896.624
8.818664,49,1982,75,264,-492,269,-9461.893,-6873.320,9165.091,-6904.099
8.838684,62,1991,32,286,-444,333,-9493.419,-6774.789,9193.454,-6920.481
8.858734,77,2023,81,287,-404,369,-9519.134,-6677.865,9221.159,-6942.468
8.878662,105,2087,44,276,-361,396,-9536.163,-6584.271,9249.330,-6970.961,213,-66,168
8.898681,98,2120,29,246,-306,432,-9542.527,-6496.049,9279.182,-7005.265
8.918670,86,2185,54,197,-252,456,-9538.631,-6418.865,9310.497,-7040.082,213,-66,168,33995
8.938690,76,2262,85,125,-189,434,-9525.252,-6360.462,9343.236,-7067.775
8.958648,78,2177,59,18,-134,355,-9506.058,-6325.219,9376.666,-7080.963
8.978668,97,2092,43,-93,-104,238,-9484.265,-6310.299,9410.040,-7079.225,202,-51,153
8.998657,140,2129,60,-170,-80,136,-9460.820,-6308.916,9442.219,-7068.973
9.018676,162,2145,108,-218,-58,81,-9432.328,-6315.327,9477.410,-7054.215
9.038665,188,2168,102,-279,-50,77,-9395.873,-6326.290,9519.770,-7035.980
9.058654,197,2109,139,-346,-47,92,-9352.075,-6338.022,9568.644,-7017.452
9.078674,185,2060,126,-381,-46,125,-9304.097,-6349.419,9619.503,-7001.374,215,-49,145
9.098663,197,2017,158,-382,-29,141,-9257.087,-6361.450,9666.431,-6988.121
9.118682,208,1987,188,-351,-7,124,-9213.437,-6374.052,9706.938,-6978.168
9.138671,213,1937,171,-310,11,117,-9172.638,-6386.082,9741.186,-6973.191
9.158660,235,1897,179,-264,38,113,-9136.229,-6397.083,9767.469,-6974.139
9.178649,264,1998,239,-202,67,106,-9104.131,-6406.329,9785.622,-6982.176,226,-51,149
9.198669,287,2055,281,-143,94,112,-9073.308,-6413.609,9799.463,-6996.187
9.218658,267,2121,304,-124,116,126,-9038.866,-6422.920,9812.217,-7014.329
9.238678,291,2099,320,-136,155,134,-9000.099,-6439.286,9821.488,-7036.163
9.258667,288,2027,324,-148,213,115,-8958.352,-6465.159,9825.090,-7060.643
9.278656,331,1943,310,-155,272,80,-8915.103,-6499.101,9822.601,-7087.634,227,-64,157
9.298675,378,1899,265,-151,319,56,-8871.922,-6535.046,9814.259,-7120.247
9.318664,429,1948,316,-111,355,61,-8831.145,-6567.013,9800.269,-7160.681
9.338684,472,1988,294,-56,367,84,-8792.495,-6593.322,9784.448,-7205.563
9.358673,481,1999,364,-32,355,101,-8755.315,-6616.566,9770.751,-7247.990
9.378662,497,2045,377,-45,323,93,-8719.335,-6640.500,9761.423,-7281.964,234,-61,161
9.398651,492,2030,410,-81,278,62,-8684.546,-6667.787,9757.812,-7303.410
9.418670,512,2027,445,-139,228,25,-8646.372,-6699.789,9762.344,-7313.353,234,-61,161,33968
9.438659,496,2029,506,-222,200,17,-8598.917,-6735.691,9777.955,-7315.471
9.458648,500,1990,484,-318,180,35,-8542.677,-6776.739,9803.400,-7309.395
9.478637,502,1932,476,-399,162,25,-8484.593,-6820.960,9831.974,-7297.527,237,-62,183
9.498657,469,1907,458,-413,153,5,-8430.836,-6866.466,9856.244,-7284.403
9.518646,445,1861,469,-372,158,-26,-8385.708,-6911.608,9870.392,-7274.639
9.538635,417,1809,449,-291,180,-60,-8350.189,-6956.083,9871.249,-7271.941
9.558654,464,1824,471,-197,219,-93,-8323.358,-6999.023,9857.963,-7279.519
9.578643,487,1894,459,-94,266,-103,-8300.815,-7036.620,9835.356,-7299.565,252,-58,172
9.598632,508,1962,487,-23,305,-66,-8277.539,-7068.301,9809.457,-7330.173
9.618652,529,1976,472,14,326,-24,-8254.016,-7096.816,9782.939,-7364.506
9.638641,548,1985,479,19,325,-18,-8230.638,-7125.820,9756.972,-7397.040
9.658660,563,1982,466,6,315,-31,-8207.431,-7156.243,9732.039,-7426.244
9.678649,570,1975,485,-6,303,-40,-8185.654,-7185.220,9708.178,-7453.482,246,-71,189
9.698638,578,1943,456,2,284,-38,-8165.946,-7209.511,9686.610,-7479.658
9.718658,606,1954,477,12,251,-20,-8149.257,-7228.404,9668.200,-7503.406
9.738647,605,1963,464,22,207,-15,-8137.522,-7241.414,9652.881,-7523.297
9.758636,585,1869,429,38,154,-13,-8132.168,-7247.659,9639.315,-7540.444
9.778625,577,1835,429,78,106,-10,-8136.166,-7245.360,9624.224,-7557.598,260,-76,193
9.798645,575,1859,379,143,67,-11,-8148.997,-7235.524,9606.248,-7576.046
9.818664,551,1898,373,196,37,-14,-8169.043,-7219.921,9585.843,-7595.164
9.838653,551,1934,406,240,14,-16,-8193.594,-7201.366,9563.625,-7614.319
9.858642,529,1976,368,260,3,-23,-8220.106,-7182.749,9540.410,-7632.430
9.878662,520,1955,340,258,1,-36,-8246.890,-7167.362,9516.454,-7647.892,271,-70,197
9.898651,540,1958,351,240,3,-62,-8273.507,-7156.128,9492.436,-7659.504
9.918640,497,2018,331,218,4,-80,-8298.338,-7147.981,9469.401,-7668.756,271,-70,197,33992
9.938659,481,2030,294,192,11,-88,-8320.441,-7144.189,9446.865,-7676.131
9.958648,466,2026,323,167,23,-100,-8340.471,-7145.252,9423.496,-7682.126
9.978637,446,2032,285,148,44,-119,-8359.402,-7153.066,9397.017,-7686.713,261,-70,185
9.998626,421,2021,286,134,72,-155,-8378.099,-7168.306,9366.105,-7689.885
10.018646,390,2000,285,125,103,-194,-8396.763,-7191.627,9329.301,-7692.492
10.038635,348,1994,303,117,141,-237,-8414.406,-7223.681,9288.226,-7692.885
10.058654,339,2036,319,89,174,-281,-8429.565,-7265.797,9245.014,-7688.679
10.078704,339,2061,323,44,198,-323,-8439.638,-7316.266,9202.797,-7680.410,263,-72,188
10.098632,327,2049,307,-11,217,-335,-8443.226,-7372.867,9164.097,-7668.606
10.118652,308,2047,328,-70,226,-337,-8441.355,-7433.718,9129.408,-7653.280
10.138641,340,2031,317,-113,228,-334,-8436.818,-7496.433,9097.805,-7634.721
10.158630,296,2004,319,-136,215,-334,-8431.862,-7557.409,9070.006,-7613.127
10.178649,287,2007,351,-149,186,-322,-8426.937,-7613.692,9046.745,-7590.142,253,-64,187
10.198638,286,1969,342,-147,155,-295,-8422.255,-7663.882,9027.561,-7567.635
10.218627,276,1944,330,-134,129,-263,-8419.468,-7706.081,9010.749,-7547.894
10.238647,249,1975,297,-100,105,-224,-8418.475,-7739.039,8995.609,-7533.327
10.258636,261,1972,304,-60,87,-177,-8419.570,-7763.106,8980.827,-7524.972
10.278625,237,2000,293,-13,76,-139,-8423.032,-7780.660,8965.551,-7521.182,248,-64,177
10.298614,273,2003,305,17,66,-118,-8427.085,-7793.797,8951.240,-7520.086
10.318634,261,2028,293,28,58,-93,-8430.534,-7803.100,8939.282,-7520.797
10.338623,278,1975,264,31,47,-72,-8433.338,-7808.840,8930.432,-7522.208
10.358642,286,1999,241,31,29,-49,-8436.752,-7809.137,8924.101,-7525.585
10.378631,367,1935,203,55,11,-20,-8442.975,-7800.721,8919.290,-7533.034,252,-79,190
10.398620,381,1882,210,100,-17,22,-8453.183,-7779.188,8915.796,-7547.975
10.418609,371,2045,253,171,-48,83,-8467.295,-7743.687,8912.906,-7572.037,252,-79,190,33986
10.438629,296,2190,314,245,-70,141,-8483.405,-7702.952,8911.649,-7596.993
10.458618,281,2112,305,221,-90,128,-8500.012,-7671.363,8912.424,-7609.474
10.478637,278,2068,277,140,-104,49,-8515.728,-7655.225,8912.726,-7607.801,239,-61,180
10.498626,304,2045,259,74,-90,-37,-8530.140,-7650.132,8910.551,-7599.322
10.518615,314,1950,226,38,-67,-75,-8542.078,-7648.747,8907.785,-7590.544
10.538604,347,1958,216,34,-49,-67,-8552.389,-7642.227,8904.691,-7589.131
10.558624,331,2062,209,80,-41,-11,-8562.911,-7626.706,8902.018,-7596.012
10.578613,328,2133,230,118,-50,35,-8573.484,-7606.757,8901.387,-7604.824,241,-61,177
10.598632,276,2092,253,111,-65,44,-8583.671,-7588.401,8903.742,-7608.914
10.618621,306,1987,203,80,-81,26,-8595.304,-7572.272,8907.552,-7607.390
10.638610,357,2044,198,67,-103,7,-8609.906,-7553.250,8911.956,-7604.630
10.658599,342,2072,233,88,-125,17,-8626.011,-7528.698,8919.475,-7601.911
10.678619,311,2123,204,87,-157,44,-8638.433,-7502.323,8934.079,-7596.728,242,-74,176
10.698608,314,2111,263,38,-174,66,-8646.722,-7479.471,8955.730,-7584.328
10.718627,318,2084,225,-32,-195,49,-8651.660,-7462.077,8985.219,-7560.915
10.738616,311,2061,212,-110,-231,26,-8656.058,-7448.663,9020.248,-7527.325
10.758636,335,1993,220,-148,-261,0,-8663.158,-7434.821,9056.797,-7488.857
10.778625,324,2004,256,-141,-290,-11,-8673.637,-7416.023,9093.927,-7450.271,242,-60,176
10.798614,295,2045,243,-115,-314,11,-8685.205,-7389.697,9133.932,-7413.926
10.818634,258,2027,259,-102,-340,48,-8695.267,-7359.797,9177.861,-7377.534
10.838623,260,2000,272,-118,-352,69,-8703.370,-7329.660,9223.334,-7341.183
10.858612,235,1904,230,-116,-345,77,-8712.404,-7296.227,9265.979,-7310.003
10.878631,239,1921,234,-67,-331,99,-8725.134,-7257.379,9301.409,-7288.464,242,-58,176
10.898620,244,2049,237,12,-299,113,-8740.601,-7217.912,9328.137,-7274.953
10.918609,237,2102,306,49,-255,101,-8753.242,-7184.504,9350.944,-7263.534,242,-58,176,33960
10.938598,276,2103,344,18,-214,81,-8758.553,-7161.660,9374.463,-7249.362
10.958618,277,2084,331,-53,-176,59,-8754.437,-7149.990,9400.811,-7231.711
10.978607,316,2053,332,-127,-136,47,-8741.624,-7146.671,9430.156,-7212.259,240,-62,179
10.998596,315,2006,293,-184,-106,49,-8723.047,-7147.687,9461.620,-7192.509
11.018615,347,1971,315,-210,-91,51,-8702.152,-7150.453,9493.237,-7173.385
11.038604,387,1971,372,-211,-81,53,-8682.147,-7153.017,9523.495,-7154.937
11.058593,373,1976,359,-196,-81,47,-8664.642,-7154.108,9552.384,-7136.533
11.078613,408,1971,400,-180,-92,41,-8649.755,-7153.199,9580.558,-7117.711,233,-62,174
11.098602,434,1957,408,-165,-105,38,-8637.882,-7149.668,9608.109,-7098.514
11.118621,478,1968,435,-145,-123,37,-8629.194,-7141.929,9636.734,-7078.038
11.138610,474,1998,486,-132,-155,41,-8623.585,-7130.095,9667.723,-7054.507
11.158599,458,1992,494,-129,-195,44,-8622.839,-7115.456,9700.542,-7025.086
11.178619,436,1934,462,-124,-238,15,-8628.715,-7100.591,9730.980,-6990.731,237,-62,188
11.198608,423,1920,498,-95,-257,-23,-8642.625,-7086.258,9755.004,-6954.517
11.218597,382,1954,520,-49,-261,-69,-8663.844,-7073.889,9770.989,-6918.172
11.238616,335,1951,499,-8,-250,-108,-8689.720,-7064.300,9779.633,-6883.215
11.258605,314,1945,495,22,-221,-139,-8717.479,-7058.893,9781.484,-6850.956
11.278595,282,1979,533,40,-185,-158,-8743.632,-7058.546,9778.621,-6822.010,233,-72,179
11.298675,304,2013,548,40,-141,-170,-8766.063,-7063.756,9772.724,-6796.233
11.318603,291,1982,534,27,-94,-176,-8782.616,-7074.442,9765.062,-6774.726
11.338592,292,1950,519,11,-46,-170,-8795.786,-7089.507,9754.303,-6757.370
11.358612,290,1929,488,21,-8,-179,-8811.142,-7107.345,9737.182,-6743.303
11.378601,299,1949,472,56,16,-205,-8832.081,-7127.360,9713.042,-6729.586,241,-73,200
11.398590,292,1976,447,88,17,-250,-8858.991,-7148.587,9684.361,-6713.014
11.418609,313,1981,393,110,2,-281,-8890.982,-7167.472,9653.348,-6695.229,241,-73,200,33964
11.438598,310,1969,388,140,-20,-288,-8930.608,-7181.254,9620.199,-6675.405
11.458618,333,1972,381,177,-64,-304,-8977.432,-7188.995,9587.525,-6651.230
11.478576,337,2014,333,197,-124,-308,-9029.599,-7188.363,9560.019,-6620.819,224,-68,189
11.498596,319,2036,358,195,-204,-292,-9086.227,-7178.383,9539.786,-6583.252
11.518585,322,2050,349,184,-283,-278,-9147.790,-7161.789,9526.067,-6535.762
11.538604,356,2028,328,171,-366,-297,-9215.877,-7138.800,9518.740,-6475.658
11.558593,298,2017,333,155,-469,-309,-9290.159,-7104.801,9520.113,-6404.499
11.578613,227,2038,306,147,-577,-290,-9368.731,-7057.914,9531.296,-6324.757,227,-66,193
11.598602,158,2020,302,136,-670,-256,-9449.006,-7002.356,9549.999,-6238.289
11.618591,89,2051,300,114,-729,-238,-9528.601,-6944.020,9572.280,-6147.619
11.638580,10,2034,317,98,-741,-233,-9605.546,-6888.055,9595.261,-6054.303
11.658599,-63,2026,322,74,-729,-250,-9678.361,-6840.164,9616.054,-5958.893
11.678588,-124,2019,304,43,-679,-284,-9743.643,-6805.094,9632.574,-5865.241,210,-66,173
11.698577,-143,2040,319,10,-588,-308,-9797.232,-6784.432,9644.506,-5779.677
11.718597,-110,2011,319,-25,-461,-302,-9836.862,-6776.639,9652.233,-5708.164
11.738586,-140,1981,336,-39,-328,-267,-9865.274,-6775.453,9654.337,-5656.747
11.758575,-161,1970,331,-7,-207,-202,-9886.096,-6777.232,9648.466,-5628.211
11.778595,-169,2019,378,49,-84,-141,-9899.571,-6785.378,9634.143,-5619.239,192,-70,172
11.798584,-188,2040,350,78,38,-112,-9905.694,-6803.444,9611.852,-5624.775
11.818603,-193,2012,316,89,148,-108,-9905.495,-6831.532,9583.090,-5640.138
11.838592,-213,2017,301,95,236,-114,-9901.612,-6868.655,9546.426,-5663.995
11.858581,-196,2017,284,119,319,-129,-9896.138,-6913.671,9500.245,-5696.347
11.878601,-153,2027,288,152,395,-145,-9888.857,-6964.006,9446.544,-5736.842,165,-61,161
11.898590,-137,2064,261,178,452,-141,-9877.429,-7016.006,9389.788,-5786.136
11.918579,-106,2097,314,185,502,-106,-9859.277,-7067.367,9334.087,-5844.418,165,-61,161,33984
11.938598,-53,2100,301,176,538,-50,-9831.875,-7114.980,9284.502,-5911.408
11.958587,-6,2053,254,152,553,34,-9797.055,-7153.680,9243.497,-5986.298
11.978576,28,2014,243,145,541,130,-9757.831,-7180.167,9209.952,-6069.773,168,-68,159
11.998596,31,1998,200,157,522,223,-9716.092,-7194.854,9181.100,-6162.341
12.018585,46,2030,203,185,509,302,-9673.112,-7200.350,9154.172,-6262.782
12.038574,85,2096,180,209,504,354,-9629.983,-7201.051,9127.704,-6366.219
12.058593,76,2087,167,220,495,370,-9586.408,-7200.517,9102.170,-6468.329
12.078582,101,2126,196,205,489,363,-9539.578,-7204.627,9077.746,-6566.564,173,-60,156
12.098571,94,2124,174,159,509,338,-9487.881,-7219.538,9052.722,-6658.982
12.118591,128,2095,188,104,542,284,-9433.267,-7247.218,9025.905,-6742.385
12.138580,181,2070,166,50,562,213,-9377.091,-7283.627,8998.383,-6817.879
12.158569,213,2054,141,13,566,172,-9319.962,-7323.795,8971.607,-6888.108
12.178558,265,2062,132,-11,555,154,-9261.898,-7364.311,8947.588,-6954.154,178,-70,153
12.198577,285,2062,160,-35,536,150,-9204.581,-7403.249,8927.110,-7014.963
12.218597,286,2066,164,-52,497,143,-9149.351,-7439.590,8910.648,-7069.487
12.238586,316,2056,160,-69,451,136,-9096.899,-7473.481,8898.046,-7117.142
12.258575,309,2082,181,-83,404,121,-9048.018,-7506.527,8888.537,-7156.449
12.278564,267,2086,197,-102,361,89,-9002.792,-7541.129,8881.714,-7185.519,200,-67,151
12.298584,260,2083,222,-137,320,46,-8959.817,-7580.059,8877.974,-7202.873
12.318573,260,2074,237,-186,287,-3,-8917.915,-7625.017,8877.512,-7207.989
12.338562,248,2028,257,-246,255,-53,-8876.516,-7675.466,8881.027,-7201.213
12.358551,235,1986,255,-295,226,-93,-8835.723,-7729.164,8887.234,-7186.273
12.378570,215,1959,254,-322,206,-117,-8796.256,-7784.081,8894.398,-7166.525,213,-59,152
12.398559,206,1925,280,-331,189,-133,-8758.949,-7839.881,8901.102,-7143.030
12.418579,166,1891,299,-335,178,-156,-8723.247,-7897.282,8906.956,-7116.141,213,-59,152,33990
12.438568,168,1858,277,-341,171,-175,-8688.176,-7955.851,8912.058,-7087.361
12.458557,178,1804,288,-344,169,-181,-8652.829,-8012.954,8917.397,-7059.502
12.478576,195,1787,306,-335,167,-166,-8617.234,-8066.143,8923.679,-7034.485,220,-66,166
12.498565,179,1805,304,-316,162,-134,-8581.361,-8113.355,8931.813,-7013.691
12.518646,187,1859,362,-297,153,-94,-8544.130,-8154.556,8943.045,-6997.030
12.538543,207,1947,371,-293,144,-52,-8503.391,-8191.905,8958.954,-6982.663
12.558563,221,2064,439,-306,138,-17,-8458.954,-8227.564,8979.252,-6968.626
12.578582,236,2138,481,-330,134,4,-8411.081,-8264.946,9004.329,-6949.955,222,-61,170
12.598571,267,2139,487,-382,118,-3,-8359.694,-8305.434,9035.793,-6922.799
12.618560,295,2098,498,-446,91,-8,-8304.523,-8346.473,9075.036,-6888.427
12.638580,329,2087,547,-494,60,7,-8248.480,-8383.531,9120.276,-6850.910
12.658569,322,2040,539,-497,25,33,-8195.295,-8412.891,9168.994,-6813.617
12.678558,327,1992,537,-470,-14,61,-8148.774,-8433.273,9218.361,-6777.509,218,-65,185
12.698577,302,2013,536,-416,-59,71,-8112.289,-8444.794,9264.422,-6744.042
12.718566,278,2113,510,-341,-96,69,-8086.011,-8449.524,9305.649,-6712.844
12.738555,257,2149,537,-280,-120,57,-8065.957,-8451.876,9342.918,-6682.174
12.758544,228,2122,575,-256,-126,39,-8047.353,-8455.998,9376.867,-6651.766
12.778564,223,2106,534,-255,-107,22,-8025.937,-8466.431,9407.080,-6621.642,217,-73,203
12.798553,220,2032,543,-269,-65,-4,-8000.930,-8483.844,9432.779,-6592.998
12.818573,262,1961,571,-276,-17,-23,-7972.986,-8505.893,9454.127,-6567.813
12.838562,253,1886,565,-268,23,-34,-7943.261,-8530.572,9470.226,-6548.602
12.858551,263,1864,568,-239,69,-35,-7914.884,-8554.718,9479.401,-6538.180
12.878570,283,1885,566,-176,105,-32,-7889.495,-8576.285,9481.748,-6537.208,228,-84,213
12.898559,290,1853,573,-116,134,-21,-7865.472,-8596.632,9478.272,-6544.467
12.918548,264,1821,554,-74,166,-20,-7843.275,-8618.951,9467.437,-6557.422,228,-84,213,33992
12.938537,264,1808,535,-35,204,-49,-7824.721,-8644.800,9447.198,-6574.727
12.958557,271,1789,568,8,240,-90,-7810.000,-8675.571,9416.897,-6595.138
12.978546,269,1835,530,40,273,-136,-7798.469,-8711.527,9377.070,-6618.092,231,-83,232
12.998565,263,1852,519,73,309,-183,-7791.196,-8752.393,9327.523,-6642.712
13.018554,259,1839,475,108,334,-238,-7788.534,-8797.256,9268.635,-6668.947
13.038574,262,1860,428,145,360,-279,-7789.287,-8844.413,9201.902,-6698.043
13.058563,268,1856,484,174,382,-304,-7791.180,-8892.420,9130.732,-6729.603
13.078552,291,1875,454,192,391,-309,-7792.496,-8938.989,9059.782,-6762.192,220,-95,228
13.098541,290,1885,458,192,387,-293,-7791.490,-8982.252,8992.441,-6795.826
13.118560,298,1946,460,181,380,-256,-7787.080,-9020.576,8931.384,-6830.550
13.138549,307,1944,467,168,361,-209,-7781.115,-9053.328,8877.088,-6864.710
13.158538,308,1948,466,156,328,-174,-7776.194,-9080.215,8828.954,-6896.774
13.178527,309,1865,426,157,282,-147,-7775.870,-9099.487,8785.364,-6927.336,221,-91,241
13.198547,293,1773,363,183,227,-128,-7784.055,-9107.547,8743.972,-6959.845
13.218566,310,1729,310,249,172,-94,-7802.559,-9100.938,8703.923,-6997.868
13.238555,304,1757,300,336,112,-53,-7830.844,-9079.161,8664.478,-7043.362
13.258544,307,1788,258,423,66,-6,-7865.792,-9044.173,8626.567,-7095.775
13.278533,323,1858,257,482,29,41,-7903.371,-8998.683,8591.942,-7153.628,220,-92,230
13.298553,314,1903,239,509,5,91,-7939.119,-8947.751,8562.810,-7212.617
13.318542,341,1948,220,485,-13,126,-7969.884,-8897.884,8539.979,-7267.241
13.338562,330,1969,217,424,-18,132,-7993.160,-8854.661,8522.728,-7314.568
13.358551,351,2019,238,337,-5,123,-8008.002,-8822.770,8510.784,-7350.688
13.378540,336,1974,201,225,3,83,-8016.482,-8805.477,8502.801,-7371.391,220,-83,235
13.398559,322,1941,176,113,2,14,-8022.596,-8801.631,8496.154,-7376.993
13.418548,297,1931,194,35,-1,-53,-8027.734,-8806.892,8488.838,-7373.547,220,-83,235,34000
13.438537,268,1951,167,-4,10,-99,-8031.258,-8819.868,8478.279,-7366.345
13.458526,245,1939,215,-23,41,-132,-8034.043,-8840.192,8461.152,-7358.634
13.478546,162,1907,227,-24,82,-180,-8035.700,-8870.917,8435.999,-7348.721,222,-78,210
13.498535,83,1825,218,-45,133,-243,-8035.287,-8917.555,8400.326,-7333.576
13.518524,21,1670,207,-84,206,-338,-8030.852,-8982.897,8351.143,-7314.834
13.538543,11,1525,171,-107,303,-429,-8023.563,-9062.499,8286.974,-7297.604
13.558532,-4,1391,119,-89,390,-495,-8017.220,-9148.160,8207.579,-7287.415
13.578552,6,1305,114,-17,455,-530,-8015.511,-9231.415,8113.261,-7289.924,227,-78,198
13.598541,29,1333,136,97,502,-535,-8018.948,-9306.136,8008.523,-7306.935
13.618530,56,1899,232,203,517,-508,-8027.580,-9370.049,7898.181,-7335.824
13.638519,56,2860,385,298,500,-481,-8044.142,-9422.514,7785.766,-7370.569
13.658538,-16,3564,393,348,449,-472,-8054.952,-9478.873,7689.983,-7387.035
13.678527,-58,3563,633,95,401,-478,-8048.556,-9552.829,7621.383,-7369.813,223,-74,204
13.698516,-61,2913,384,-199,340,-485,-8019.011,-9646.238,7582.325,-7320.473
13.718536,-124,2880,265,-426,322,-443,-7987.164,-9732.195,7549.789,-7275.005
13.738586,-115,3360,580,-327,303,-375,-7972.366,-9791.171,7513.247,-7249.890
13.758514,-79,3402,655,-113,213,-304,-7954.239,-9839.331,7489.847,-7228.780
13.778533,-66,2827,512,-245,189,-201,-7911.830,-9894.472,7497.718,-7191.802,216,-81,211
13.798522,-100,2427,414,-472,158,-102,-7864.688,-9946.917,7523.615,-7143.958
13.818542,-155,2341,403,-480,83,-78,-7834.906,-9989.283,7545.108,-7094.734
13.838531,-160,2147,433,-373,2,-140,-7827.642,-10023.239,7555.641,-7043.466
13.858520,-162,1850,381,-284,-74,-208,-7835.896,-10047.841,7562.321,-6991.878
13.878540,-194,1636,349,-209,-142,-212,-7855.380,-10059.925,7568.999,-6945.256,210,-68,207
13.898529,-226,1701,419,-128,-194,-178,-7882.633,-10060.589,7574.692,-6907.106
13.918548,-235,1750,501,-56,-219,-148,-7909.260,-10058.436,7582.002,-6871.691,210,-68,207,33976
13.938507,-282,1701,506,-86,-212,-135,-7925.390,-10066.182,7595.476,-6826.737
13.958526,-286,1618,493,-220,-180,-148,-7928.353,-10088.401,7615.751,-6767.655
13.978546,-269,1581,427,-345,-143,-172,-7922.070,-10120.611,7637.349,-6702.266,202,-84,220
13.998504,-252,1549,441,-385,-100,-182,-7911.869,-10154.187,7655.005,-6643.128
14.018524,-204,1532,459,-341,-57,-163,-7901.746,-10181.888,7667.727,-6597.951
14.038513,-178,1540,450,-247,-32,-120,-7895.983,-10198.696,7674.379,-6571.102
14.058502,-180,1581,445,-118,-22,-69,-7895.566,-10203.661,7675.433,-6562.658
14.078521,-178,1634,455,-3,-11,-24,-7899.486,-10199.229,7672.364,-6568.417,195,-96,227
14.098510,-158,1703,471,77,-6,8,-7906.229,-10189.378,7666.612,-6582.295
14.118530,-190,1650,446,127,-1,23,-7915.611,-10176.984,7656.931,-6601.435
14.138519,-189,1556,429,165,5,16,-7929.357,-10163.093,7640.620,-6625.193
14.158508,-171,1508,339,227,14,-6,-7951.373,-10144.499,7614.225,-6657.613
14.178527,-223,2748,332,343,17,-20,-7989.868,-10114.310,7569.088,-6708.731,188,-96,234
14.198516,-262,3306,693,582,22,-53,-8047.115,-10069.816,7509.573,-6773.808
14.218505,-167,2987,713,599,-27,-70,-8090.783,-10042.531,7465.859,-6810.518
14.238494,-6,2238,389,334,-37,-128,-8122.841,-10028.535,7437.396,-6824.113
14.258544,141,2711,554,256,-64,-102,-8162.016,-9991.406,7411.477,-6859.936
14.278503,110,3236,748,493,-126,55,-8207.213,-9922.257,7399.563,-6918.986,187,-97,230
14.298522,8,3096,834,483,-224,216,-8236.829,-9857.264,7426.005,-6948.300
14.318511,-40,2456,625,133,-316,231,-8250.897,-9814.623,7483.193,-6930.593
14.338501,-26,1910,431,-149,-381,178,-8262.314,-9778.724,7546.758,-6898.740
14.358520,-59,1737,399,-149,-387,174,-8283.461,-9730.458,7600.556,-6882.546
14.378509,-61,1751,331,50,-389,214,-8319.952,-9660.320,7637.453,-6896.474,184,-90,221
14.398529,-43,1776,284,305,-379,273,-8369.673,-9571.005,7657.644,-6938.325
14.418518,-6,1749,258,499,-363,304,-8428.211,-9469.391,7668.797,-6994.345,184,-90,221,33995
14.438507,43,1730,291,591,-375,325,-8490.084,-9358.693,7680.103,-7055.833
14.458496,93,1761,316,610,-406,367,-8546.885,-9242.587,7701.900,-7116.284
14.478515,95,1775,354,547,-436,430,-8590.518,-9126.513,7743.534,-7168.184,189,-87,207
14.498504,155,1749,382,395,-464,502,-8616.075,-9015.867,7809.385,-7205.992
14.518524,157,1724,389,206,-491,562,-8624.121,-8912.291,7898.908,-7227.605
14.538513,163,1710,436,32,-516,609,-8618.822,-8814.785,8005.680,-7236.020
14.558502,200,1820,447,-100,-532,629,-8603.964,-8724.321,8122.906,-7232.693
14.578521,233,1938,547,-200,-542,621,-8583.067,-8638.582,8248.559,-7218.211,188,-84,201
14.598510,204,1919,532,-282,-566,619,-8556.319,-8556.266,8380.922,-7195.505
14.618499,179,1820,535,-337,-569,619,-8525.871,-8477.360,8512.225,-7170.868
14.638488,206,1671,524,-337,-534,605,-8495.364,-8401.659,8632.171,-7152.760
14.658508,247,1631,464,-267,-464,581,-8467.545,-8325.762,8735.304,-7149.284
14.678497,268,1684,466,-153,-387,576,-8444.965,-8246.761,8821.348,-7161.896,198,-76,177
14.698486,302,1912,523,-36,-327,564,-8428.556,-8167.827,8892.138,-7184.105
14.718505,339,2122,532,36,-284,519,-8416.719,-8096.255,8953.072,-7203.292
14.738494,360,2261,572,21,-268,433,-8407.429,-8036.815,9010.487,-7209.111
14.758514,377,2169,535,-46,-283,337,-8398.050,-7987.850,9069.187,-7200.852
14.778503,389,2122,467,-107,-303,282,-8390.774,-7941.028,9127.564,-7187.349,213,-78,182
14.798492,355,2255,468,-88,-315,269,-8391.908,-7889.400,9179.099,-7177.244
14.818481,278,2386,484,1,-320,247,-8405.570,-7835.404,9219.044,-7169.205
14.838501,188,2521,508,71,-323,183,-8427.458,-7789.538,9247.922,-7156.285
14.858490,85,2400,518,72,-296,83,-8451.373,-7761.479,9266.158,-7134.947
14.878479,47,2138,494,27,-237,-33,-8471.819,-7756.474,9273.715,-7106.267,214,-65,188
14.898498,29,1876,442,-32,-146,-140,-8486.069,-7771.018,9270.166,-7077.949
14.918518,14,1777,458,-51,-40,-195,-8493.627,-7796.764,9256.790,-7058.047,214,-65,188,33990
14.938507,32,1730,450,-39,59,-200,-8492.786,-7829.934,9237.626,-7047.440
14.958557,68,1793,451,-51,140,-186,-8482.652,-7869.985,9216.459,-7042.745
14.978485,91,1823,518,-82,202,-178,-8465.315,-7914.834,9195.500,-7040.743,229,-68,182
14.998504,100,1739,510,-108,232,-166,-8442.951,-7961.680,9176.800,-7039.175
15.018493,87,1651,497,-133,243,-158,-8419.195,-8010.867,9157.672,-7036.735
15.038482,94,1677,505,-132,253,-177,-8399.849,-8063.096,9131.639,-7034.033
15.058502,59,1706,503,-90,263,-225,-8386.849,-8118.340,9097.244,-7030.569
15.078491,112,1898,512,-64,272,-275,-8379.290,-8175.355,9056.692,-7025.868,224,-68,180
15.098480,141,1931,527,-36,268,-307,-8374.073,-8228.805,9016.523,-7021.354
15.118499,121,1872,556,-30,242,-281,-8366.777,-8277.785,8983.159,-7015.240
15.138488,110,1851,519,-68,213,-250,-8356.376,-8326.851,8956.533,-7003.605
15.158508,100,1851,535,-109,189,-252,-8345.892,-8376.279,8933.771,-6986.213
15.178497,62,1759,547,-135,160,-258,-8336.917,-8425.487,8914.905,-6961.816,224,-66,189
15.198486,65,1732,538,-161,122,-274,-8331.416,-8475.119,8897.399,-6930.482
15.218475,71,1782,578,-165,91,-302,-8331.008,-8522.146,8880.713,-6894.613
15.238494,67,1819,564,-159,46,-309,-8333.828,-8564.730,8867.990,-6854.698
15.258483,44,1733,559,-168,0,-295,-8335.667,-8602.561,8862.263,-6812.365
15.278472,27,1696,554,-189,-24,-259,-8336.584,-8636.370,8860.630,-6770.461,209,-72,190
15.298492,-10,1786,527,-187,-36,-236,-8337.202,-8668.596,8858.420,-6731.295
15.318481,34,1829,548,-168,-20,-230,-8335.812,-8700.773,8855.556,-6695.172
15.338470,79,1810,536,-176,-6,-209,-8330.364,-8729.167,8857.274,-6662.641
15.358551,103,1799,477,-173,-15,-152,-8325.497,-8746.683,8863.401,-6637.558
15.378479,115,1812,488,-118,-40,-83,-8323.986,-8749.693,8872.292,-6623.593,211,-79,201
15.398468,142,1899,475,-47,-62,-6,-8324.445,-8740.535,8883.463,-6620.133
15.418487,179,1918,480,-1,-72,61,-8323.655,-8725.129,8897.804,-6622.190,211,-79,201,33992
15.438476,194,1930,475,2,-74,95,-8321.366,-8707.937,8915.100,-6624.434
15.458526,213,1941,469,-13,-81,103,-8318.471,-8691.578,8933.554,-6624.692
15.478485,194,1924,446,-22,-85,93,-8316.175,-8677.852,8950.785,-6622.310
15.498474,205,1906,528,-33,-84,64,-8313.911,-8669.040,8965.086,-6617.348,207,-84,204
15.518493,221,1823,476,-43,-64,34,-8308.398,-8665.765,8977.619,-6611.568
15.538482,246,1749,452,-59,-33,24,-8302.259,-8663.261,8986.503,-6610.491
15.558471,257,1739,439,-17,-9,33,-8300.622,-8655.315,8988.747,-6619.898
15.578460,230,1701,380,77,8,53,-8305.012,-8640.790,8982.418,-6641.921
15.598480,247,1652,324,176,33,64,-8318.263,-8622.547,8965.006,-6672.501,203,-85,203
15.618469,271,1615,267,264,44,33,-8341.776,-8600.542,8936.951,-6709.082
15.638488,283,1598,239,349,41,15,-8372.934,-8571.461,8902.451,-6753.210
15.658477,274,1661,132,424,37,33,-8408.675,-8533.838,8864.853,-6805.703
15.678466,291,1704,63,484,29,69,-8445.446,-8489.246,8828.851,-6862.504
15.698486,234,1737,39,495,12,103,-8481.893,-8439.854,8797.655,-6918.312,197,-79,199
15.718475,227,1787,-1,468,-21,119,-8516.414,-8393.652,8770.203,-6966.796
15.738464,275,1855,41,413,-25,91,-8547.323,-8356.598,8745.913,-7003.926
15.758453,285,1897,42,320,-37,40,-8572.432,-8331.366,8729.168,-7024.158
15.778472,247,1877,48,191,-57,-5,-8588.286,-8316.628,8723.479,-7029.322
15.798461,271,1902,75,63,-65,-18,-8595.432,-8310.494,8726.518,-7024.068,205,-85,196
15.818481,207,1913,108,-22,-65,-30,-8598.491,-8311.315,8732.738,-7011.612
15.838470,209,1995,116,-70,-59,-59,-8599.694,-8319.933,8738.104,-6993.207
15.858490,200,2063,113,-104,-43,-99,-8597.492,-8334.228,8742.674,-6973.153
15.878479,249,2055,112,-122,-11,-95,-8588.993,-8346.592,8748.399,-6961.647
15.898468,320,2172,181,-95,21,-24,-8580.048,-8349.291,8752.904,-6963.778,207,-72,195
15.918457,346,2223,100,-16,19,33,-8572.905,-8339.831,8757.759,-6977.793,207,-72,195,34000
15.938476,395,2307,85,47,15,108,-8568.092,-8317.710,8764.334,-7001.813
15.958465,427,2331,31,111,-9,165,-8570.575,-8282.828,8770.896,-7031.842
15.978454,479,2346,-61,184,-59,192,-8584.339,-8233.881,8775.386,-7066.848
15.998474,505,2435,-47,278,-103,224,-8607.316,-8166.827,8778.484,-7112.713,208,-76,193
16.018463,548,2570,-99,380,-152,298,-8634.410,-8083.300,8785.667,-7166.219
16.038482,573,2646,-160,420,-207,359,-8663.423,-7993.071,8798.607,-7216.360
16.058471,599,2672,-194,391,-245,359,-8692.208,-7903.511,8815.898,-7259.160
16.078460,601,2524,-230,355,-263,353,-8714.264,-7814.395,8836.706,-7303.758
16.098480,673,2490,-341,340,-242,397,-8734.522,-7721.469,8855.552,-7355.383,203,-66,187
16.118469,633,2558,-365,397,-223,422,-8758.844,-7621.746,8864.627,-7419.262
16.138458,664,2585,-414,495,-177,438,-8787.757,-7521.278,8859.891,-7492.894
16.158447,724,2631,-428,563,-127,405,-8821.104,-7425.095,8844.413,-7567.554
16.178527,803,2638,-434,584,-104,351,-8853.284,-7336.081,8826.833,-7636.997
16.198455,814,2618,-435,526,-97,319,-8879.334,-7253.830,8814.481,-7699.333,220,-76,177
16.218475,824,2539,-477,448,-97,309,-8898.099,-7178.549,8810.391,-7752.722
16.238464,771,2547,-441,357,-111,301,-8910.666,-7109.779,8815.828,-7795.362
16.258453,742,2477,-387,263,-139,289,-8917.414,-7050.284,8830.739,-7824.749
16.278442,725,2362,-401,156,-158,247,-8920.210,-7001.563,8852.889,-7840.264
16.298461,707,2273,-341,67,-175,203,-8919.386,-6959.132,8880.426,-7847.834,224,-66,164
16.318450,663,2185,-293,17,-183,200,-8913.063,-6920.135,8912.279,-7853.391
16.338470,692,2125,-309,-23,-172,214,-8901.715,-6883.904,8946.506,-7859.185
16.358459,682,2023,-252,-40,-146,236,-8885.340,-6847.653,8982.162,-7868.708
16.378448,632,1966,-274,-51,-140,251,-8868.907,-6814.876,9015.478,-7877.597
16.398468,626,1958,-259,-52,-119,220,-8855.436,-6787.859,9043.193,-7884.308,235,-48,149
16.418457,599,1972,-226,-45,-101,167,-8844.046,-6767.536,9066.153,-7888.194,235,-48,149,34000
16.438446,575,1888,-199,-59,-75,134,-8828.857,-6753.460,9088.940,-7891.049
16.458435,556,1786,-172,-95,-46,134,-8806.507,-6745.937,9111.027,-7896.985
16.478454,509,1763,-206,-118,2,135,-8782.192,-6747.760,9127.083,-7903.963
16.498443,521,1769,-135,-120,60,88,-8756.285,-6759.780,9132.698,-7915.940,240,-51,130
16.518463,472,1706,-169,-109,145,60,-8726.645,-6780.912,9131.409,-7932.067
16.538452,543,1671,-196,-122,211,38,-8695.542,-6810.475,9124.042,-7949.355
16.558441,447,1652,-149,-121,253,-10,-8667.556,-6847.511,9108.173,-7966.283
16.578460,443,1650,-85,-102,289,-68,-8645.181,-6891.041,9084.239,-7980.377
16.598449,481,1634,-72,-90,299,-128,-8628.093,-6941.108,9056.857,-7986.601,237,-55,144
16.618469,511,1668,-41,-108,283,-191,-8614.190,-6995.717,9031.529,-7982.643
16.638458,507,1692,-54,-145,234,-237,-8600.582,-7050.474,9012.404,-7970.748
16.658447,454,1713,-24,-185,191,-233,-8585.847,-7103.410,9002.248,-7951.085
16.678466,423,1703,-23,-231,136,-224,-8572.686,-7156.941,8999.384,-7920.466
16.698455,410,1724,-7,-273,76,-257,-8561.713,-7208.192,9002.743,-7881.946,246,-57,134
16.718444,364,1743,7,-290,24,-245,-8551.794,-7252.236,9015.776,-7837.289
16.738433,327,1779,32,-315,-36,-210,-8540.009,-7289.033,9038.008,-7790.256
16.758453,301,1780,39,-333,-88,-158,-8525.928,-7318.552,9070.526,-7740.047
16.778442,325,1776,30,-362,-146,-115,-8507.585,-7339.296,9114.541,-7688.712
16.798431,312,1777,54,-391,-188,-30,-8479.619,-7349.030,9171.719,-7642.173,250,-57,145
16.818450,309,1748,35,-416,-206,86,-8441.832,-7349.438,9238.418,-7603.176
16.838439,340,1697,54,-423,-205,174,-8400.212,-7342.704,9308.519,-7570.207
16.858459,370,1662,54,-402,-206,220,-8358.994,-7329.612,9377.421,-7543.435
16.878448,404,1666,77,-357,-200,249,-8319.551,-7311.426,9442.395,-7523.611
16.898437,436,1710,106,-308,-183,267,-8281.090,-7290.554,9502.592,-7510.495,242,-55,162
16.918426,485,1752,67,-272,-157,275,-8243.702,-7270.167,9558.127,-7500.912,242,-55,162,33974
16.938446,528,1745,116,-253,-137,258,-8208.420,-7251.094,9609.694,-7492.175
16.958435,517,1800,158,-237,-132,242,-8175.677,-7232.706,9658.803,-7482.595
16.978424,534,1823,167,-230,-134,222,-8143.310,-7216.496,9707.026,-7471.129
16.998443,581,1804,193,-239,-129,207,-8110.123,-7202.743,9754.252,-7458.979,239,-64,166
17.018432,611,1798,185,-247,-118,201,-8075.514,-7190.087,9800.810,-7447.702
17.038452,609,1789,191,-244,-109,201,-8041.194,-7178.175,9845.536,-7437.328
17.058441,593,1800,246,-234,-98,192,-8008.567,-7167.608,9885.463,-7429.757
17.078430,604,1789,205,-205,-70,178,-7978.245,-7158.808,9917.859,-7427.690
17.098449,635,1748,222,-159,-28,159,-7953.112,-7151.467,9939.919,-7432.225,247,-60,183
17.118438,654,1802,244,-96,8,130,-7933.778,-7143.887,9952.384,-7443.488
17.138427,679,1877,247,-29,45,119,-7917.642,-7134.407,9957.684,-7462.648
17.158447,719,1922,265,19,77,123,-7903.750,-7123.861,9957.593,-7487.529
17.178436,761,1906,244,53,99,124,-7889.830,-7111.530,9955.617,-7516.504
17.198425,749,1920,219,67,108,141,-7876.162,-7097.674,9951.363,-7549.496,249,-67,185
17.218444,775,1943,155,92,123,143,-7865.270,-7083.186,9942.570,-7585.955
17.238433,827,1924,138,130,141,132,-7859.104,-7067.667,9927.912,-7625.913
17.258422,873,1919,132,168,152,117,-7857.917,-7050.967,9908.120,-7668.219
17.278442,858,1935,109,211,154,99,-7862.314,-7033.665,9883.915,-7710.721
17.298431,886,1975,48,238,145,67,-7872.264,-7017.728,9856.254,-7750.395,252,-79,199
17.318420,900,1999,52,251,134,31,-7886.227,-7002.976,9827.129,-7786.445
17.338439,892,1998,40,247,114,8,-7901.186,-6989.697,9800.057,-7817.269
17.358428,895,1970,14,220,95,-5,-7914.180,-6978.870,9776.975,-7842.659
17.378417,874,1982,13,179,80,-14,-7926.182,-6972.723,9755.566,-7862.642
17.398498,874,1981,5,150,72,-46,-7939.848,-6971.777,9733.593,-7876.911,266,-65,192
17.418426,863,1991,4,134,64,-87,-7956.158,-6975.159,9710.864,-7885.509,266,-65,192,33992
17.438415,812,1987,9,119,53,-123,-7972.972,-6981.645,9688.556,-7890.226
17.458404,761,1998,3,97,51,-139,-7987.717,-6992.884,9667.001,-7891.796
17.478424,743,1978,11,66,60,-156,-8001.275,-7010.307,9644.622,-7889.988
17.498413,710,1930,49,42,72,-191,-8014.817,-7033.087,9621.354,-7884.376,266,-67,192
17.518432,711,1924,49,24,73,-215,-8028.617,-7058.419,9597.352,-7876.946
17.538421,707,1909,34,20,73,-224,-8042.493,-7083.423,9573.701,-7869.123
17.558410,677,1946,32,23,72,-221,-8056.087,-7107.419,9550.620,-7861.625
17.578399,686,1934,29,20,71,-212,-8067.712,-7129.642,9529.791,-7854.854
17.598419,686,1910,46,9,66,-187,-8076.575,-7149.598,9511.903,-7849.287,265,-66,182
17.618438,688,1921,62,6,62,-159,-8082.976,-7165.995,9496.490,-7846.408
17.638397,693,1951,77,12,62,-125,-8086.000,-7179.256,9482.931,-7847.567
17.658416,708,1938,106,12,73,-90,-8086.060,-7190.206,9470.657,-7852.302
17.678405,752,2007,157,13,78,-63,-8082.100,-7199.325,9461.136,-7859.498
17.698425,725,2021,151,-3,80,-30,-8072.249,-7207.892,9455.657,-7868.358,271,-60,181
17.718414,778,2046,155,-26,96,0,-8056.993,-7218.406,9452.550,-7878.084
17.738403,785,2088,165,-54,111,5,-8038.016,-7233.620,9449.707,-7886.919
17.758422,793,2115,172,-81,133,-8,-8017.381,-7253.978,9446.212,-7893.409
17.778411,778,2045,151,-104,142,-37,-7997.846,-7279.033,9440.472,-7897.029
17.798400,796,2043,157,-108,144,-69,-7982.659,-7306.027,9431.086,-7898.682,272,-66,189
17.818420,764,2050,138,-84,140,-103,-7974.452,-7332.337,9417.158,-7899.209
17.838409,735,2086,161,-45,129,-132,-7972.217,-7357.641,9399.458,-7899.018
17.858428,733,2128,161,-19,120,-155,-7974.619,-7382.404,9379.895,-7896.744
17.878417,712,2108,108,-8,101,-173,-7978.994,-7405.158,9361.235,-7893.161
17.898407,695,2095,125,-5,85,-162,-7983.480,-7424.417,9344.675,-7890.155,258,-57,182
17.918396,667,2032,110,3,73,-140,-7989.844,-7439.194,9328.632,-7888.779,258,-57,182,33992
17.938415,669,2017,101,30,55,-128,-7999.860,-7448.276,9312.751,-7888.823
17.958404,664,2019,122,62,31,-111,-8012.345,-7449.966,9298.952,-7890.833
17.978393,694,2019,136,86,1,-79,-8025.261,-7443.847,9289.486,-7894.632
17.998413,700,2002,138,98,-23,-36,-8037.214,-7431.864,9285.309,-7898.674,255,-68,184
18.018402,684,2004,112,90,-51,-5,-8047.403,-7417.298,9285.840,-7901.365
18.038421,711,1981,168,70,-65,11,-8055.552,-7402.664,9290.497,-7901.313
18.058410,702,1932,106,41,-81,20,-8059.672,-7388.340,9300.088,-7899.235
18.078399,677,1892,106,10,-88,41,-8060.216,-7374.858,9313.051,-7896.005
18.098419,655,1897,88,-12,-87,47,-8059.493,-7363.321,9325.924,-7892.314,261,-67,188
18.118408,671,1880,117,-21,-76,34,-8059.104,-7355.789,9336.569,-7887.149
18.138397,638,1830,129,-28,-66,8,-8059.926,-7351.953,9344.496,-7880.496
18.158386,634,1841,99,-29,-54,-19,-8062.446,-7350.952,9349.221,-7873.243
18.178405,645,1891,80,-19,-42,-39,-8065.829,-7351.778,9351.570,-7866.215
18.198394,620,1921,165,-19,-30,-51,-8069.030,-7355.462,9352.473,-7858.409,258,-66,177
18.218414,594,1856,154,-30,-20,-65,-8071.381,-7364.257,9352.149,-7848.137
18.238403,603,1793,161,-50,-12,-99,-8074.440,-7378.430,9349.858,-7834.397
18.258392,572,1758,178,-63,-3,-130,-8079.480,-7396.488,9345.065,-7817.874
18.278381,579,1735,145,-60,-3,-159,-8086.605,-7415.616,9338.504,-7800.206
18.298400,550,1667,125,-52,-8,-168,-8094.987,-7433.172,9330.595,-7784.251,266,-70,183
18.318420,561,1653,141,-34,-3,-159,-8104.428,-7447.592,9321.671,-7771.325
18.338409,541,1636,98,-6,-7,-141,-8114.992,-7458.337,9311.250,-7762.484
18.358398,503,1616,108,25,-1,-130,-8127.970,-7466.620,9297.092,-7757.912
18.378417,489,1635,94,64,20,-133,-8144.360,-7472.931,9277.386,-7758.237
18.398407,488,1630,70,108,42,-137,-8163.758,-7478.126,9252.125,-7763.008,250,-66,177
18.418396,501,1660,104,141,57,-140,-8183.778,-7484.208,9222.643,-7771.144,250,-66,177,33968
18.438415,495,1668,94,156,77,-148,-8203.150,-7492.675,9190.029,-7781.192
18.458404,489,1735,52,156,97,-158,-8221.357,-7503.581,9156.279,-7791.248
18.478393,500,1760,45,150,106,-162,-8237.242,-7515.914,9123.569,-7800.948
18.498382,498,1770,71,128,114,-155,-8249.566,-7530.289,9093.318,-7809.379,250,-78,184
18.518402,484,1757,75,95,119,-154,-8258.666,-7547.585,9066.148,-7814.652
18.538391,493,1778,64,56,115,-151,-8263.306,-7567.835,9042.814,-7817.199
18.558410,475,1830,52,17,112,-144,-8263.370,-7590.656,9024.069,-7816.666
18.578399,488,1841,51,-22,111,-137,-8259.934,-7614.151,9009.748,-7813.965
18.598388,472,1756,31,-52,105,-122,-8254.221,-7637.208,8999.335,-7809.500,242,-60,183
18.618469,493,1709,58,-68,94,-112,-8249.631,-7658.181,8988.862,-7805.872
18.638397,531,1781,15,-42,82,-108,-8248.713,-7674.199,8976.374,-7805.481
18.658386,528,1884,17,6,77,-95,-8250.472,-7683.544,8963.355,-7809.389
18.678375,527,1900,62,35,70,-65,-8251.486,-7688.000,8952.655,-7816.203
18.698394,516,1937,87,34,64,-35,-8248.327,-7692.032,8946.044,-7823.136,236,-68,173
18.718383,521,1978,55,3,58,-14,-8240.848,-7698.925,8943.003,-7827.714
18.738372,551,1974,67,-32,57,-19,-8231.949,-7708.747,8940.013,-7830.825
18.758392,526,1902,65,-37,70,-32,-8225.227,-7719.747,8933.632,-7834.335
18.778381,534,1957,35,-12,78,-50,-8223.508,-7729.698,8921.128,-7840.573
18.798370,534,2020,53,39,92,-68,-8225.692,-7738.344,8901.994,-7851.493,235,-58,176
18.818389,530,2070,140,82,115,-75,-8228.661,-7747.609,8878.034,-7866.360
18.838378,511,2132,74,92,139,-82,-8228.906,-7761.830,8851.812,-7881.621
18.858398,507,2097,68,71,167,-97,-8224.190,-7783.044,8824.069,-7896.718
18.878387,533,2101,93,33,211,-107,-8214.326,-7810.247,8795.621,-7911.849
18.898376,507,2128,33,11,243,-114,-8202.939,-7840.312,8764.581,-7928.358,240,-62,172
18.918365,523,2192,24,22,266,-124,-8191.387,-7873.339,8729.408,-7946.355,240,-62,172,33992
18.938385,509,2202,119,24,293,-141,-8179.723,-7910.677,8689.926,-7964.542
18.958374,501,2274,81,13,310,-168,-8165.287,-7954.433,8648.428,-7980.927
18.978363,499,2255,31,-13,328,-187,-8146.363,-8003.094,8607.280,-7996.086
18.998382,547,2151,51,-44,354,-181,-8123.370,-8050.764,8568.197,-8013.581,241,-68,177
19.018371,555,2140,-6,-40,363,-147,-8100.152,-8091.616,8531.032,-8035.559
19.038391,587,2128,80,-3,341,-108,-8080.075,-8123.193,8494.418,-8062.655
19.058380,609,2276,30,48,317,-76,-8064.085,-8144.904,8460.624,-8092.239
19.078369,600,2302,59,79,273,-44,-8048.770,-8159.872,8433.426,-8120.748
19.098358,582,2320,87,57,231,-11,-8032.689,-8171.367,8414.978,-8144.216,248,-57,170
19.118377,546,2363,38,27,178,5,-8016.455,-8182.626,8403.674,-8160.563
19.138366,561,2240,109,-20,140,0,-7999.150,-8196.492,8398.967,-8168.469
19.158355,575,2285,23,-75,109,-7,-7980.347,-8211.825,8399.435,-8170.979
19.178375,575,2155,42,-98,94,-3,-7962.119,-8225.087,8402.541,-8172.230
19.198364,583,2061,42,-95,78,9,-7948.418,-8231.918,8405.125,-8176.030,234,-59,177
19.218383,557,2003,23,-33,49,18,-7941.321,-8230.045,8403.815,-8186.154
19.238372,562,1951,54,46,47,31,-7941.955,-8219.927,8396.016,-8203.688
19.258392,548,2006,9,128,42,29,-7948.569,-8206.119,8382.086,-8225.321
19.278350,531,2015,78,170,48,11,-7956.469,-8194.843,8364.715,-8246.582
19.298370,522,2087,-9,152,58,-8,-7960.799,-8188.999,8347.204,-8265.930,239,-59,182
19.318359,523,2066,73,119,88,-15,-7959.079,-8191.509,8330.506,-8281.928
19.338378,516,2124,-12,55,112,-34,-7953.301,-8202.382,8315.189,-8292.105
19.358367,512,2100,56,6,123,-61,-7943.484,-8220.257,8301.325,-8297.703
19.378387,523,2062,10,-46,142,-71,-7930.044,-8243.648,8289.995,-8298.680
19.398376,472,2015,82,-89,140,-81,-7913.401,-8272.824,8279.969,-8295.541,241,-54,177
19.418365,477,1975,80,-132,147,-105,-7896.094,-8309.217,8269.699,-8285.899,241,-54,177,34001
19.438354,456,1931,69,-167,149,-150,-7881.428,-8352.468,8256.839,-8269.184
19.458374,460,1913,101,-187,145,-204,-7871.471,-8397.124,8241.911,-8248.307
19.478363,434,1874,33,-171,120,-228,-7867.441,-8437.339,8226.488,-8226.482
19.498352,389,1905,100,-135,92,-228,-7870.344,-8470.027,8210.321,-8206.240,242,-67,172
19.518371,355,1951,150,-84,58,-219,-7878.391,-8496.934,8192.680,-8188.314
19.538360,325,2023,152,-47,41,-218,-7888.905,-8520.148,8175.299,-8171.423
19.558380,340,2049,149,-39,25,-205,-7896.710,-8541.939,8161.498,-8154.914
19.578369,364,2007,139,-55,28,-170,-7898.085,-8559.892,8154.668,-8141.580
19.598358,375,1931,160,-75,29,-103,-7891.786,-8571.753,8156.283,-8133.586,242,-62,172
19.618377,390,1948,98,-73,22,-20,-7879.735,-8576.000,8162.924,-8134.131
19.638366,416,1882,114,-50,32,49,-7866.733,-8571.970,8171.617,-8142.232
19.658355,436,1836,87,-4,21,95,-7858.209,-8559.092,8178.043,-8157.544
19.678375,433,1894,89,67,9,104,-7858.922,-8537.679,8179.198,-8178.113
19.698364,443,1961,53,151,-17,93,-7867.612,-8511.511,8175.732,-8200.469,239,-64,177
19.718353,422,1956,52,184,-29,73,-7880.363,-8485.057,8170.335,-8220.994
19.738372,419,1933,97,182,-35,50,-7895.841,-8462.102,8162.875,-8237.198
19.758361,413,1959,21,171,-44,11,-7913.080,-8443.302,8152.432,-8250.279
19.778350,437,1891,23,166,-28,-16,-7929.813,-8427.883,8140.124,-8262.121
19.798370,422,1907,23,155,-19,-29,-7945.195,-8414.571,8127.940,-8272.901,235,-67,183
19.818359,403,1970,23,138,-15,-33,-7957.780,-8403.810,8115.565,-8283.884
19.838439,391,2005,43,125,6,-30,-7967.913,-8396.688,8102.606,-8294.045
19.858367,392,2018,4,106,17,-45,-7976.037,-8395.355,8089.042,-8300.824
19.878356,422,2026,28,72,37,-64,-7980.645,-8399.769,8077.271,-8303.391
19.898376,410,2023,24,23,40,-75,-7980.587,-8409.872,8068.277,-8301.964,234,-66,180
19.918365,416,2006,13,-24,47,-79,-7976.658,-8424.686,8060.518,-8298.257,234,-66,180,33990
19.938354,387,2050,58,-52,72,-83,-7970.697,-8441.411,8052.488,-8294.783
19.958343,379,2087,42,-51,74,-82,-7964.004,-8460.001,8042.119,-8292.331
19.978363,372,2095,40,-53,94,-93,-7957.324,-8481.214,8030.063,-8288.759
19.998352,363,2048,35,-64,107,-110,-7950.284,-8504.032,8018.163,-8283.654,237,-60,169
20.018341,397,2006,31,-70,102,-114,-7945.641,-8524.709,8005.882,-8278.731
20.038360,425,1998,31,-43,85,-109,-7943.552,-8537.919,7994.428,-8278.193
20.058349,435,1993,67,0,64,-68,-7943.652,-8541.119,7986.870,-8282.090
20.078338,457,1969,38,33,23,-25,-7945.571,-8535.130,7984.517,-8288.689
20.098358,444,1983,-8,56,-16,16,-7949.039,-8521.812,7987.916,-8295.789,237,-62,176
20.118347,467,1978,-32,63,-51,47,-7955.055,-8501.520,7996.788,-8302.293
20.138336,450,1955,28,69,-98,68,-7966.396,-8475.680,8010.732,-8304.396
20.158355,422,1889,72,70,-162,64,-7982.461,-8446.676,8030.186,-8299.729
20.178344,423,1867,49,54,-214,55,-8002.392,-8415.556,8053.463,-8289.591
20.198333,397,1904,33,50,-256,50,-8022.984,-8380.850,8079.977,-8279.039,237,-67,174
20.218353,346,1909,58,58,-269,79,-8040.636,-8343.528,8108.964,-8271.267
20.238342,367,1883,77,52,-254,110,-8053.694,-8308.802,8137.185,-8265.801
20.258361,365,1866,42,33,-220,108,-8065.232,-8280.697,8161.139,-8259.135
20.278350,363,1841,67,24,-193,60,-8077.995,-8260.062,8179.934,-8248.725
20.298339,373,1789,24,7,-175,15,-8091.041,-8244.850,8195.252,-8235.944,234,-64,177
20.318328,373,1773,55,0,-161,-11,-8104.768,-8231.134,8208.525,-8222.938
20.338348,424,1837,56,5,-153,-17,-8117.727,-8217.161,8221.217,-8211.444
20.358337,410,1951,73,6,-145,-5,-8127.559,-8204.493,8236.142,-8199.418
20.378326,397,1878,84,-28,-142,-2,-8133.529,-8197.967,8254.778,-8181.266
20.398345,410,1873,88,-91,-146,-27,-8137.667,-8199.057,8274.416,-8156.182,235,-58,169
20.418334,442,1819,90,-131,-143,-61,-8142.401,-8202.977,8295.247,-8126.301,235,-58,169,33984
20.438324,418,1901,97,-149,-156,-68,-8148.190,-8205.273,8318.954,-8093.883
20.458343,391,1941,130,-152,-181,-67,-8156.258,-8204.784,8345.685,-8058.657
20.478332,405,1931,150,-153,-216,-61,-8164.533,-8201.809,8375.970,-8021.801
20.498321,436,1890,168,-156,-236,-43,-8172.266,-8194.925,8408.734,-7986.608,231,-54,175
20.518341,422,1949,225,-143,-245,-15,-8181.961,-8182.121,8442.970,-7953.622
20.538330,382,2017,247,-117,-271,0,-8193.751,-8166.739,8479.243,-7918.628
20.558319,369,1991,196,-123,-294,-6,-8206.032,-8151.577,8516.886,-7881.047
20.578338,290,1962,283,-135,-291,-6,-8218.062,-8135.874,8551.431,-7847.258
20.598327,339,1980,151,-97,-264,1,-8231.193,-8119.271,8578.436,-7821.174,236,-61,168
20.618347,396,2054,197,-39,-221,2,-8246.599,-8098.553,8597.169,-7805.840
20.638336,406,2125,218,35,-187,23,-8260.447,-8073.882,8611.731,-7800.703
20.658325,466,2179,236,68,-146,57,-8269.734,-8049.071,8624.453,-7802.447
20.678344,447,2184,286,67,-111,75,-8274.287,-8027.604,8636.295,-7806.636
20.698333,486,2201,232,48,-85,73,-8276.768,-8011.965,8647.242,-7807.955,234,-66,177
20.718322,509,2161,239,24,-76,41,-8281.018,-8001.234,8654.523,-7806.386
20.738342,467,2124,216,28,-73,0,-8291.211,-7992.024,8655.252,-7804.192
20.758331,467,2179,204,67,-60,-35,-8306.888,-7981.307,8648.757,-7805.690
20.778350,446,2173,180,124,-50,-53,-8327.889,-7970.366,8633.607,-7811.260
20.798339,424,2209,150,178,-25,-86,-8357.137,-7959.726,8609.976,-7816.953,221,-74,174
20.818328,411,2160,80,224,-32,-135,-8393.928,-7948.248,8579.346,-7822.887
20.838317,413,2132,102,267,-30,-163,-8435.218,-7934.661,8542.699,-7832.367
20.858306,419,2199,65,317,-25,-165,-8477.350,-7918.358,8501.736,-7847.934
20.878326,441,2276,28,351,3,-143,-8515.485,-7899.133,8460.792,-7870.237
20.898345,454,2250,-17,344,22,-99,-8546.556,-7880.535,8424.682,-7893.903,220,-73,184
20.918334,431,2241,-19,299,29,-72,-8570.663,-7864.960,8395.039,-7914.852,220,-73,184,34007
20.938324,422,2157,22,245,34,-54,-8591.268,-7850.221,8371.437,-7932.126
20.958343,396,2221,-37,205,8,-46,-8611.100,-7835.445,8351.827,-7945.890
20.978332,414,2218,-3,189,1,-44,-8629.910,-7820.626,8336.656,-7956.006
20.998321,413,2202,-19,158,-28,-40,-8644.649,-7807.945,8326.772,-7962.809,227,-61,180
21.018341,448,2139,10,111,-26,-26,-8655.238,-7797.561,8321.000,-7967.514
21.038330,394,2097,7,82,-28,-16,-8662.953,-7790.085,8315.858,-7971.810
21.058380,442,2059,-34,68,-9,-26,-8670.891,-7784.569,8308.267,-7976.482
21.078308,468,2000,6,83,-7,-40,-8681.614,-7777.935,8298.858,-7981.083
21.098327,450,1950,40,100,-19,-48,-8696.590,-7766.982,8288.336,-7986.378,220,-61,154
21.118347,468,1974,65,136,-48,-43,-8715.044,-7752.285,8276.140,-7993.186
21.138305,447,1985,25,166,-49,-41,-8735.413,-7735.807,8263.011,-8000.496
21.158325,440,2035,25,169,-44,-47,-8755.082,-7723.195,8250.196,-8004.405
21.178314,357,2067,-9,131,-43,-69,-8771.017,-7716.696,8241.010,-8002.690
21.198333,363,2056,4,67,-44,-81,-8781.423,-7717.839,8235.141,-7996.214,215,-61,157
21.218322,368,2027,5,2,-22,-90,-8785.655,-7726.332,8231.697,-7986.904
21.238311,362,1964,44,-37,8,-93,-8786.115,-7739.778,8228.681,-7976.480
21.258300,365,1856,74,-57,28,-99,-8784.689,-7754.625,8225.598,-7966.807
21.278320,371,1848,4,-57,32,-91,-8783.535,-7768.634,8222.344,-7957.784
21.298309,357,1896,52,-46,33,-92,-8785.663,-7779.058,8217.545,-7950.204,220,-61,154
21.318328,381,1953,77,-16,6,-91,-8790.493,-7785.101,8211.729,-7944.959
21.338317,345,2023,118,13,3,-72,-8793.659,-7789.429,8208.874,-7940.162
21.358306,287,2069,118,-20,-4,-56,-8791.810,-7799.110,8210.993,-7930.509
21.378326,318,2117,157,-83,-1,-74,-8783.914,-7819.053,8216.645,-7913.750
21.398315,324,2111,162,-155,30,-94,-8768.429,-7846.983,8226.221,-7893.303,220,-54,152
21.418304,329,2031,107,-211,44,-78,-8745.585,-7877.291,8239.573,-7874.510,220,-54,152,33995
21.438293,268,1961,158,-240,65,-58,-8722.990,-7907.598,8251.012,-7857.199
21.458313,298,2004,147,-210,79,-69,-8703.904,-7936.455,8256.805,-7843.171
21.478302,341,2026,167,-165,85,-72,-8687.496,-7961.575,8259.067,-7833.516
21.498321,313,1975,158,-125,91,-54,-8672.174,-7978.948,8261.870,-7829.861,218,-60,149
21.518310,372,1922,167,-94,71,-12,-8655.513,-7989.892,8266.358,-7832.399
21.538299,362,1972,136,-71,69,29,-8639.983,-7994.712,8270.561,-7840.186
21.558319,354,1957,126,-33,61,55,-8625.806,-7995.038,8274.844,-7850.938
21.578308,343,1991,142,-14,54,69,-8612.472,-7991.333,8281.600,-7862.217
21.598297,380,1914,149,-15,28,88,-8596.069,-7986.597,8291.650,-7874.378,216,-55,149
21.618286,430,1845,97,-28,36,108,-8579.589,-7982.141,8302.049,-7885.904
21.638305,419,1870,74,-27,43,100,-8568.108,-7975.471,8308.664,-7898.159
21.658294,372,1902,139,15,25,75,-8562.531,-7969.453,8308.726,-7910.207
21.678314,349,1964,206,50,27,30,-8562.456,-7967.980,8302.573,-7918.228
21.698303,326,1987,150,45,31,-27,-8562.389,-7974.809,8293.447,-7920.990,210,-61,161
21.718322,320,2023,165,4,60,-67,-8557.496,-7992.138,8284.235,-7918.450
21.738281,384,2030,193,-60,96,-101,-8547.604,-8017.249,8276.812,-7911.510
21.758300,360,1993,247,-103,107,-103,-8533.464,-8046.094,8270.810,-7903.764
21.778320,340,1985,151,-123,120,-97,-8518.296,-8074.547,8263.875,-7898.363
21.798309,354,1933,233,-95,138,-95,-8505.296,-8099.415,8253.848,-7897.394,213,-66,159
21.818298,349,1938,189,-53,138,-78,-8495.501,-8118.155,8241.716,-7901.365
21.838287,370,1923,190,-7,122,-62,-8488.615,-8129.983,8227.279,-7911.643
21.858276,330,1973,225,46,119,-33,-8484.864,-8134.372,8212.523,-7926.472
21.878295,441,1962,165,83,100,-10,-8483.439,-8131.695,8199.539,-7944.168
21.898284,434,1918,150,117,81,20,-8485.316,-8121.661,8187.717,-7964.594,221,-70,162
21.918273,433,1926,65,154,50,38,-8493.052,-8103.541,8174.699,-7988.143,221,-70,162,33984
21.938293,440,1943,110,209,22,46,-8507.982,-8079.277,8158.479,-8013.375
21.958313,374,2007,74,243,-14,31,-8527.647,-8055.005,8139.844,-8035.826
21.978302,321,1952,61,235,-28,-5,-8548.133,-8037.501,8121.267,-8050.369
21.998321,334,1963,22,189,-21,-53,-8566.682,-8028.463,8104.240,-8056.826,218,-58,162
22.018310,288,1923,-1,129,-12,-85,-8583.209,-8025.025,8090.091,-8056.883
22.038299,272,1985,-24,87,-16,-96,-8597.586,-8023.831,8078.110,-8054.764
22.058288,275,2020,74,68,-17,-95,-8608.729,-8025.720,8067.512,-8051.601
22.078277,309,2137,78,44,-5,-88,-8613.504,-8032.640,8060.624,-8046.490
22.098297,263,2117,94,-26,19,-79,-8607.428,-8044.952,8062.157,-8039.153,216,-58,167
22.118286,277,2129,169,-104,46,-39,-8591.208,-8062.960,8072.473,-8028.102
22.138305,208,2083,126,-179,48,-16,-8567.991,-8086.095,8088.843,-8013.154
22.158294,219,2051,122,-232,44,-11,-8538.553,-8112.994,8106.840,-7999.188
22.178283,372,2086,73,-242,98,9,-8503.637,-8141.815,8125.747,-7987.907
22.198303,321,2077,147,-262,120,29,-8466.917,-8166.877,8145.996,-7980.703,227,-68,150
22.218292,331,2077,129,-241,105,59,-8431.611,-8184.449,8165.807,-7979.834
22.238281,378,2132,179,-183,92,99,-8398.317,-8192.412,8185.583,-7986.508
22.258270,375,2132,235,-134,85,139,-8367.744,-8194.007,8204.990,-7997.042
22.278350,453,2244,203,-100,60,148,-8338.549,-8192.051,8222.130,-8011.922
22.298278,458,2219,225,-68,65,165,-8310.235,-8187.328,8239.727,-8028.075,216,-65,165
22.318298,427,2103,188,-71,50,176,-8281.697,-8179.663,8258.045,-8046.535
22.338287,497,2121,91,-49,43,192,-8253.424,-8167.309,8276.157,-8069.493
22.358276,537,2149,60,-14,56,222,-8228.886,-8148.227,8292.744,-8096.768
22.378295,504,2089,132,36,53,229,-8208.891,-8127.494,8307.020,-8123.226
22.398284,492,2053,120,44,36,203,-8192.050,-8108.140,8317.761,-8148.538,213,-57,168
22.418273,576,2097,116,60,47,176,-8179.185,-8088.563,8324.663,-8173.830,213,-57,168,33960
22.438262,530,2022,97,83,26,157,-8170.562,-8068.836,8329.039,-8197.458
22.458282,471,1991,30,82,20,139,-8162.813,-8052.037,8331.735,-8218.929
22.478271,494,2066,98,80,36,114,-8153.415,-8039.572,8334.848,-8237.284
22.498291,425,1973,71,46,37,99,-8142.764,-8028.568,8341.182,-8252.127,224,-66,166
22.518280,540,2014,117,13,22,99,-8130.224,-8018.398,8350.961,-8264.480
22.538269,564,1904,222,-9,21,113,-8116.755,-8007.695,8365.892,-8272.991
22.558288,460,1869,131,-22,-23,117,-8106.481,-7994.648,8381.665,-8279.715
22.578277,396,1928,198,-5,-50,100,-8102.825,-7980.481,8394.558,-8283.898
22.598266,355,1970,198,23,-60,66,-8103.582,-7968.443,8402.884,-8286.305,228,-58,167
22.618286,439,2026,229,22,-36,33,-8103.472,-7963.317,8410.055,-8284.064
22.638275,456,2016,201,-25,-28,8,-8098.580,-7964.987,8418.650,-8278.511
22.658294,423,2042,213,-73,-15,-6,-8087.774,-7972.403,8427.905,-8272.518
22.678283,401,1928,205,-109,26,2,-8071.615,-7985.115,8437.387,-8266.371
22.698272,404,2083,232,-129,50,2,-8051.424,-8003.449,8445.254,-8260.296,236,-57,173
22.718292,497,2054,358,-153,92,-7,-8025.981,-8026.304,8453.448,-8254.496
22.738281,506,2075,255,-186,98,1,-7994.035,-8053.292,8463.612,-8248.793
22.758270,505,1894,281,-229,118,13,-7957.608,-8081.505,8476.590,-8243.093
22.778259,511,1830,290,-237,131,28,-7925.429,-8104.879,8488.475,-8238.916
22.798278,616,1833,201,-182,94,29,-7901.466,-8119.931,8496.482,-8238.858,245,-60,172
22.818267,562,1825,245,-95,70,27,-7889.502,-8122.843,8498.833,-8245.025
22.838256,549,1915,197,9,39,19,-7889.345,-8117.569,8494.288,-8255.048
22.858276,575,2063,214,95,33,0,-7899.062,-8109.652,8483.952,-8264.161
22.878265,497,2142,257,117,2,-50,-7911.424,-8106.116,8470.394,-8269.709
22.898284,430,2161,168,77,5,-83,-7918.122,-8114.603,8458.342,-8267.311,234,-52,164
22.918273,533,2224,243,-3,56,-105,-7914.979,-8134.285,8449.987,-8259.519,234,-52,164,34023
22.938262,489,2087,172,-83,76,-112,-7904.534,-8161.217,8444.222,-8248.844
22.958251,495,2144,247,-124,101,-109,-7892.780,-8188.674,8439.496,-8237.717
22.978271,495,2038,271,-120,96,-106,-7882.060,-8210.878,8437.582,-8227.834
22.998260,526,1942,265,-109,44,-76,-7873.673,-8224.560,8438.435,-8221.321,240,-65,176
23.018249,587,2040,281,-66,14,-35,-7869.795,-8225.505,8441.312,-8221.136
23.038269,451,2038,301,7,0,20,-7871.802,-8214.528,8447.456,-8223.878
23.058258,413,1949,207,52,-75,39,-7879.396,-8197.893,8454.754,-8225.706
23.078247,449,1972,208,72,-100,29,-7889.306,-8180.711,8461.206,-8226.678
23.098266,470,1947,210,68,-98,20,-7900.845,-8160.302,8468.437,-8228.434,246,-59,170
23.118255,418,1891,137,88,-121,44,-7911.508,-8134.690,8477.674,-8234.035
23.138244,483,1956,159,105,-109,86,-7918.528,-8106.087,8487.113,-8245.763
23.158264,477,1898,138,120,-60,117,-7924.027,-8076.517,8496.203,-8260.123
23.178253,419,1973,136,129,-58,119,-7928.888,-8051.020,8500.678,-8275.730
23.198272,466,2015,203,116,-20,95,-7929.942,-8033.136,8500.904,-8291.852,243,-64,177
23.218261,377,1998,213,82,16,71,-7924.739,-8025.217,8497.121,-8308.355
23.238281,405,2048,227,58,77,49,-7912.465,-8029.975,8488.223,-8324.536
23.258270,398,2043,271,4,145,13,-7893.309,-8047.123,8474.824,-8339.800
23.278259,416,2014,263,-37,208,-18,-7868.651,-8075.540,8458.426,-8352.272
23.298248,498,1917,281,-74,246,-60,-7842.904,-8112.109,8437.114,-8362.600,236,-68,175
23.318267,508,1912,223,-83,263,-93,-7821.586,-8150.576,8407.547,-8374.932
23.338256,557,2000,186,-35,278,-135,-7807.065,-8187.861,8371.141,-8388.568
23.358245,554,2048,257,9,280,-165,-7801.654,-8223.613,8328.175,-8401.387
23.378265,460,2128,116,58,267,-216,-7803.784,-8260.956,8280.593,-8409.803
23.398284,420,2155,188,60,253,-267,-7810.189,-8302.086,8230.564,-8412.465,241,-64,170
23.418273,408,2108,180,39,246,-302,-7814.180,-8346.164,8181.863,-8412.650,241,-64,170,34005
23.438262,429,2077,126,13,255,-287,-7812.501,-8389.434,8136.786,-8414.889
23.458251,431,2109,152,0,269,-243,-7807.106,-8427.885,8094.463,-8422.288
23.478240,402,2218,143,18,265,-201,-7798.942,-8464.488,8053.429,-8432.475
23.498321,396,2192,164,12,269,-182,-7784.989,-8503.070,8015.131,-8443.035,241,-61,170
23.518249,391,2136,219,-32,292,-165,-7764.360,-8544.751,7980.689,-8452.572
23.538238,426,2068,152,-70,296,-144,-7739.082,-8588.641,7950.609,-8459.616
23.558258,443,2001,189,-101,298,-134,-7712.260,-8631.835,7923.657,-8465.433
23.578247,450,1970,116,-108,290,-118,-7684.251,-8673.456,7898.447,-8471.918
23.598236,419,1965,148,-107,286,-108,-7657.877,-8711.601,7872.942,-8480.397,249,-67,174
23.618255,413,1964,150,-80,281,-101,-7635.051,-8747.176,7845.278,-8489.991
23.638244,420,2032,139,-51,272,-112,-7616.029,-8781.348,7814.813,-8499.891
23.658264,396,2126,225,-39,256,-126,-7596.513,-8816.520,7785.620,-8507.732
23.678253,424,2163,198,-70,259,-120,-7572.156,-8855.684,7762.309,-8510.071
23.698242,384,2082,205,-130,253,-116,-7543.966,-8899.096,7743.884,-8506.606,240,-58,169
23.718231,371,1939,276,-176,250,-121,-7514.682,-8943.038,7727.227,-8501.589
23.738250,436,1935,214,-167,234,-115,-7486.907,-8984.607,7709.632,-8498.238
23.758239,417,2019,228,-145,234,-112,-7461.360,-9021.322,7690.637,-8499.022
23.778228,474,1972,283,-111,235,-99,-7437.543,-9057.555,7670.856,-8499.238
23.798248,397,1941,244,-120,228,-120,-7415.461,-9099.073,7648.840,-8494.026,239,-54,175
23.818237,431,1996,365,-143,233,-169,-7396.978,-9145.136,7622.110,-8484.696
23.838256,388,1942,264,-137,222,-217,-7381.553,-9194.648,7591.161,-8472.356
23.858245,342,1854,312,-137,232,-250,-7368.335,-9245.919,7558.385,-8457.356
23.878234,379,1775,247,-149,233,-268,-7358.064,-9296.096,7522.929,-8442.894
23.898254,321,1760,266,-109,222,-275,-7353.483,-9341.573,7483.492,-8431.731,239,-61,173
23.918243,341,1772,216,-53,204,-283,-7354.932,-9380.519,7440.370,-8425.387,239,-61,173,33986
23.938232,326,1897,245,8,194,-281,-7360.656,-9412.689,7397.477,-8422.279
23.958251,251,1856,284,31,176,-260,-7366.666,-9440.647,7360.016,-8418.552
23.978240,258,1941,303,19,148,-230,-7368.678,-9466.949,7329.657,-8413.740
23.998230,290,2001,313,-19,134,-191,-7366.776,-9493.009,7307.002,-8405.744,241,-64,191
24.018219,286,1950,306,-56,103,-166,-7361.047,-9519.687,7291.016,-8394.466
24.038238,287,1955,325,-95,102,-142,-7352.012,-9546.620,7278.767,-8382.418
24.058227,268,1910,303,-113,101,-130,-7341.561,-9573.092,7268.725,-8370.092
24.078216,250,1978,370,-115,96,-111,-7330.584,-9598.023,7260.443,-8358.342
24.098236,265,2019,329,-115,88,-106,-7317.768,-9621.835,7254.648,-8347.219,236,-71,193
24.118225,258,2043,354,-119,87,-83,-7304.044,-9642.100,7252.794,-8337.461
24.138244,249,2091,356,-112,67,-55,-7290.527,-9659.367,7254.607,-8327.722
24.158233,241,2149,440,-114,52,-36,-7279.540,-9672.828,7259.527,-8317.414
24.178222,234,2190,459,-102,21,-28,-7269.983,-9683.540,7265.601,-8308.000
24.198242,223,2098,364,-82,13,-17,-7260.071,-9692.786,7272.635,-8299.727,231,-61,191
24.218231,262,2007,382,-85,17,-4,-7250.571,-9697.608,7281.100,-8294.976
24.238220,313,1972,336,-57,0,26,-7243.072,-9692.152,7290.294,-8299.828
24.258209,376,1951,247,30,-11,84,-7239.281,-9671.222,7300.085,-8318.921
24.278228,397,1991,302,140,-25,150,-7240.755,-9633.402,7310.869,-8351.985
24.298248,433,2119,205,231,-60,214,-7244.887,-9584.400,7325.389,-8391.960,234,-73,203
24.318237,404,2194,315,257,-93,254,-7250.078,-9530.897,7345.497,-8430.746
24.338226,396,2240,307,237,-132,265,-7255.477,-9479.103,7372.194,-8461.137
24.358215,417,2190,252,180,-175,253,-7259.127,-9434.708,7405.187,-8478.798
24.378234,401,2114,319,85,-186,223,-7259.259,-9399.649,7443.147,-8484.383
24.398223,411,1997,297,-5,-185,196,-7255.778,-9371.911,7484.080,-8482.036,230,-79,206
24.418212,409,2001,262,-54,-186,183,-7250.024,-9347.391,7526.569,-8476.415,230,-79,206,33995
24.438232,369,2037,336,-66,-169,194,-7240.498,-9323.087,7570.980,-8471.772
24.458221,377,1945,284,-80,-157,214,-7225.875,-9302.045,7614.305,-8468.558
24.478240,343,1983,305,-98,-126,207,-7210.928,-9286.894,7649.960,-8465.793
24.498230,327,1926,340,-91,-88,152,-7197.428,-9278.947,7674.721,-8463.585,239,-71,198
24.518219,392,1900,299,-67,-36,103,-7183.824,-9275.845,7688.968,-8465.611
24.538208,352,1861,368,-34,12,80,-7169.760,-9271.924,7694.690,-8476.623
24.558227,339,2007,295,18,60,83,-7154.914,-9268.967,7691.738,-8495.059
24.578216,437,2072,343,51,112,66,-7138.438,-9270.482,7682.235,-8515.841
24.598236,374,2049,312,38,148,40,-7119.063,-9278.990,7670.280,-8533.552,234,-73,196
24.618225,394,2034,379,1,174,14,-7097.521,-9294.412,7655.989,-8547.535
24.638214,380,1980,333,-33,199,-20,-7074.081,-9314.658,7638.988,-8560.129
24.658233,422,1999,262,-37,212,-31,-7048.893,-9337.747,7618.597,-8573.913
24.678222,448,2052,335,-29,246,-38,-7023.826,-9362.640,7593.249,-8589.810
24.698211,421,2066,315,-18,265,-64,-6999.431,-9391.281,7561.398,-8606.537,241,-64,198
24.718261,460,2062,315,-12,288,-102,-6975.132,-9424.998,7524.306,-8621.901
24.738220,409,2017,307,-23,317,-131,-6948.955,-9463.707,7484.410,-8635.353
24.758209,474,2131,285,-40,345,-142,-6920.036,-9505.417,7442.847,-8648.677
24.778198,446,2084,348,-55,371,-151,-6889.841,-9549.680,7401.137,-8659.809
24.798217,453,2136,336,-77,358,-163,-6859.429,-9595.677,7360.605,-8667.649,247,-72,204
24.818206,449,2023,320,-105,355,-169,-6829.694,-9642.290,7323.631,-8670.720
24.838195,428,1967,358,-116,314,-166,-6802.009,-9688.787,7289.731,-8669.216
24.858215,425,1958,254,-128,290,-180,-6779.575,-9731.935,7256.288,-8666.517
24.878204,459,1958,401,-107,261,-185,-6763.255,-9770.169,7222.204,-8664.720
24.898223,347,2020,356,-66,237,-192,-6750.914,-9803.115,7187.638,-8665.875,248,-76,196
24.918212,392,2066,371,-24,219,-177,-6738.047,-9833.699,7153.544,-8669.447,248,-76,196,34011
24.938201,352,2145,364,-29,217,-164,-6721.145,-9865.759,7120.482,-8673.360
24.958190,444,2156,299,-52,252,-150,-6699.770,-9902.073,7089.427,-8673.954
24.978210,393,2080,404,-100,266,-154,-6675.749,-9942.752,7060.609,-8669.445
24.998199,383,2039,343,-137,244,-163,-6648.798,-9986.465,7033.044,-8662.316,253,-73,203
25.018188,326,1946,377,-154,261,-159,-6621.994,-10029.621,7005.063,-8655.658
25.038208,377,1985,339,-148,261,-163,-6598.392,-10069.466,6973.017,-8653.296
25.058197,424,2046,344,-81,268,-163,-6577.626,-10105.184,6935.586,-8657.550
25.078216,316,2088,449,-36,275,-175,-6559.200,-10138.568,6893.912,-8665.780
25.098205,353,2183,402,-7,288,-177,-6540.739,-10173.295,6849.345,-8674.370,250,-71,196
25.118194,343,2153,379,-14,305,-191,-6522.666,-10210.607,6801.716,-8681.613
25.138183,348,2038,331,-20,309,-219,-6506.213,-10250.509,6750.331,-8687.043
25.158203,316,1972,330,-4,321,-242,-6492.577,-10285.972,6694.081,-8698.847
25.178222,335,2086,262,56,333,-236,-6481.296,-10313.820,6636.916,-8718.067
25.198211,365,2168,309,108,323,-196,-6467.076,-10336.047,6584.167,-8742.267,247,-72,204
25.218200,379,2230,315,106,314,-147,-6448.959,-10356.416,6539.538,-8765.012
25.238189,449,2294,371,61,296,-112,-6426.704,-10378.724,6502.146,-8782.772
25.258178,365,2155,333,8,276,-101,-6401.612,-10405.302,6469.933,-8793.431
25.278198,359,2133,385,-44,268,-100,-6376.271,-10433.241,6442.202,-8799.097
25.298217,444,2123,285,-64,241,-97,-6353.046,-10459.376,6418.950,-8801.861,248,-76,200
25.318206,321,2055,470,-72,204,-90,-6334.178,-10482.131,6397.984,-8803.655
25.338195,378,2120,349,-48,177,-92,-6320.777,-10501.910,6375.727,-8805.861
25.358184,363,2096,393,-19,151,-109,-6307.747,-10519.908,6352.439,-8810.551
25.378204,336,2007,447,-12,169,-95,-6293.357,-10536.657,6330.708,-8816.466
25.398193,354,2065,402,-6,158,-81,-6278.704,-10553.142,6310.157,-8821.928,249,-77,208
25.418212,517,1998,270,-11,151,-79,-6266.209,-10569.817,6291.815,-8823.950,249,-77,208,33995
25.438201,432,1922,440,-31,122,-87,-6259.044,-10583.837,6274.778,-8824.361
25.458190,312,1914,387,-13,78,-108,-6258.524,-10594.110,6257.411,-8824.735
25.478179,347,2013,368,22,57,-115,-6262.571,-10602.252,6238.553,-8825.438
25.498199,366,1956,363,37,47,-127,-6268.009,-10612.659,6219.191,-8822.733,259,-74,213
25.518188,294,1973,285,-3,61,-142,-6270.996,-10627.375,6201.122,-8815.612
25.538177,262,1967,331,-41,69,-153,-6269.603,-10646.472,6182.642,-8806.536
25.558197,211,1846,270,-49,81,-145,-6266.427,-10667.204,6162.670,-8797.703
25.578186,257,1857,236,-51,82,-152,-6259.769,-10689.281,6141.455,-8790.479
25.598205,181,1810,416,-67,118,-135,-6248.734,-10711.913,6120.320,-8785.520,250,-80,207
25.623443,189,1950,475,-72,164,-121,-6237.264,-10736.273,6097.827,-8779.573
25.638183,243,1971,331,-71,133,-143,-6223.346,-10767.563,6071.542,-8769.342
25.658203,240,1948,487,-113,191,-163,-6205.204,-10804.677,6047.129,-8753.402
25.678192,180,1929,446,-176,186,-173,-6184.946,-10845.566,6025.672,-8731.945
25.698181,250,1912,325,-199,164,-171,-6162.427,-10886.883,6005.681,-8710.194,247,-79,208
25.718170,192,1931,480,-204,178,-151,-6138.453,-10924.159,5988.894,-8691.992
25.738189,235,2018,442,-194,182,-109,-6112.620,-10957.193,5977.207,-8676.647
25.758209,221,2027,559,-179,167,-67,-6084.291,-10987.032,5970.212,-8663.632
25.778198,231,1934,430,-188,144,-41,-6054.693,-11014.959,5965.674,-8652.025
25.798187,254,1785,420,-168,160,-22,-6028.409,-11038.046,5960.083,-8644.806,245,-77,215
25.818176,226,1895,446,-112,149,-23,-6008.353,-11055.159,5949.111,-8644.458
25.838165,120,1968,442,-32,149,-47,-5996.383,-11065.970,5927.888,-8653.512
25.858184,191,1948,485,61,161,-79,-5989.770,-11073.349,5897.155,-8669.635
25.878173,182,2009,526,121,170,-107,-5984.591,-11079.869,5860.957,-8689.407
25.898193,101,1962,452,125,178,-117,-5977.495,-11086.731,5822.992,-8711.036,236,-85,219
25.918182,160,1963,367,139,196,-111,-5968.839,-11093.706,5783.150,-8734.601,236,-85,219,33980
25.938232,274,1993,427,156,229,-109,-5959.662,-11096.812,5743.748,-8762.875
25.958190,208,1905,472,176,218,-80,-5951.396,-11094.171,5708.053,-8795.102
25.978179,299,1919,348,205,185,-47,-5943.110,-11086.316,5675.973,-8831.296
25.998168,232,2015,351,229,176,-11,-5933.757,-11075.012,5648.200,-8869.492,241,-83,221
26.018188,342,2099,311,220,154,11,-5918.726,-11063.493,5623.638,-8909.428
26.038177,306,2073,351,207,187,50,-5897.394,-11054.443,5605.278,-8946.302
26.058166,311,2025,322,136,181,67,-5872.103,-11050.700,5587.803,-8978.436
26.078186,306,2123,325,104,207,53,-5845.819,-11054.484,5566.908,-9003.873
26.098175,229,2069,348,61,225,11,-5817.122,-11067.223,5540.202,-9023.261,253,-85,219
26.118194,178,2064,286,13,257,-42,-5786.969,-11089.886,5506.020,-9035.740
26.138153,143,1998,417,-22,305,-94,-5753.651,-11122.775,5463.990,-9042.103
26.158172,181,2110,392,-78,357,-140,-5714.952,-11164.492,5415.369,-9044.481
26.178161,95,2090,476,-113,404,-163,-5670.112,-11212.271,5364.797,-9043.737
26.198181,202,2156,465,-140,422,-163,-5619.094,-11263.387,5314.088,-9042.001,239,-78,219
26.218170,151,2075,476,-162,449,-152,-5564.318,-11314.012,5265.753,-9040.950
26.238159,167,2117,472,-169,456,-126,-5510.973,-11360.488,5221.384,-9041.076
26.258178,195,2122,548,-141,437,-105,-5460.832,-11399.839,5179.824,-9045.873
26.278167,184,2139,486,-99,410,-72,-5413.489,-11431.918,5144.481,-9054.012
26.298187,206,2158,460,-73,367,-40,-5368.486,-11458.041,5113.378,-9065.398,249,-84,215
26.318176,203,2134,432,-43,326,-13,-5325.398,-11478.528,5086.173,-9080.187
26.338165,256,2143,457,-16,327,6,-5282.361,-11494.019,5062.927,-9098.702
26.358184,257,2118,359,7,311,47,-5236.667,-11504.885,5043.051,-9122.390
26.378173,290,2164,379,31,304,86,-5190.847,-11510.007,5025.142,-9151.951
26.398193,281,2174,413,73,295,106,-5148.075,-11508.458,5010.609,-9185.964,253,-78,214
26.418182,307,2107,335,103,251,124,-5107.503,-11504.125,4995.367,-9222.270,253,-78,214,34001
26.438171,312,2192,266,121,256,113,-5072.786,-11498.062,4976.964,-9258.869
26.458160,320,2212,317,145,232,79,-5041.451,-11490.705,4955.181,-9296.725
26.478179,342,2197,354,163,249,68,-5008.582,-11481.269,4934.372,-9337.129
26.498168,387,2266,344,165,258,101,-4971.302,-11472.232,4916.255,-9377.629,254,-81,220
26.518157,335,2290,362,152,265,119,-4929.613,-11466.249,4899.916,-9415.429
26.538147,369,2220,322,112,271,124,-4883.382,-11466.751,4882.671,-9447.812
26.558166,381,2158,304,59,295,106,-4836.789,-11473.326,4861.778,-9474.534
26.578155,422,2139,254,33,310,62,-4795.310,-11480.936,4835.675,-9499.726
26.598175,383,2042,248,55,297,19,-4760.204,-11485.782,4803.965,-9527.572,273,-81,220
26.618164,436,2086,236,100,296,-7,-4731.789,-11487.119,4766.710,-9558.775
26.638153,391,2202,306,143,293,-42,-4707.987,-11486.908,4725.555,-9591.161
26.658172,353,2209,293,154,297,-64,-4685.261,-11490.018,4682.543,-9619.617
26.678161,384,2238,246,114,289,-87,-4661.309,-11499.259,4637.017,-9642.237
26.698150,381,2132,276,79,301,-115,-4636.295,-11515.993,4590.792,-9656.435,276,-85,210
26.718170,365,2179,301,13,295,-138,-4608.813,-11540.007,4543.880,-9663.108
26.738159,416,2023,155,-47,316,-152,-4581.633,-11569.880,4497.135,-9662.180
26.758148,324,1975,179,-82,311,-174,-4554.498,-11602.059,4447.720,-9659.296
26.778167,368,2001,172,-84,331,-191,-4527.689,-11633.121,4394.822,-9658.752
26.798156,269,2069,226,-62,350,-199,-4502.597,-11663.734,4338.823,-9658.881,279,-83,214
26.818176,267,2096,271,-63,344,-220,-4476.332,-11698.542,4279.916,-9655.274
26.838165,274,2009,254,-100,362,-233,-4447.746,-11739.242,4221.131,-9644.959
26.858154,266,1967,264,-154,361,-252,-4419.974,-11784.164,4162.991,-9628.200
26.878143,319,2050,323,-180,344,-263,-4393.269,-11829.230,4107.031,-9609.174
26.898132,323,2093,344,-193,320,-252,-4367.432,-11875.697,4056.994,-9584.863,286,-76,219
26.918151,336,2032,391,-239,301,-238,-4339.886,-11925.599,4015.260,-9552.936,286,-76,219,33995
26.938140,263,2056,494,-290,270,-209,-4308.653,-11977.428,3980.178,-9516.845
26.958160,231,1979,507,-325,266,-179,-4276.863,-12028.464,3950.003,-9479.314
26.978149,291,1847,356,-326,245,-165,-4247.094,-12075.524,3922.014,-9444.424
26.998138,270,1900,445,-283,228,-152,-4221.605,-12115.072,3895.456,-9416.153,288,-80,212
27.018157,224,1896,497,-227,213,-137,-4199.115,-12145.734,3869.888,-9397.232
27.038147,260,1977,464,-142,191,-115,-4177.428,-12168.145,3845.768,-9387.802
27.058166,203,1907,479,-87,186,-81,-4154.461,-12184.426,3825.973,-9384.966
27.078155,324,1995,498,-58,173,-41,-4132.821,-12196.379,3812.410,-9384.513
27.098144,300,1883,496,-40,133,-15,-4115.535,-12203.663,3807.180,-9384.764,289,-89,215
27.118164,324,1970,342,-30,67,15,-4102.528,-12205.198,3808.291,-9388.012
27.138153,310,2003,516,2,45,38,-4093.699,-12200.185,3814.656,-9395.793
27.158203,315,2009,459,50,4,59,-4089.193,-12189.396,3825.573,-9407.313
27.178161,232,2017,505,71,-39,77,-4089.564,-12174.289,3840.473,-9420.634
27.198150,274,2039,385,88,-81,75,-4094.973,-12158.551,3856.015,-9432.253,278,-79,220
27.218139,219,2038,391,87,-85,64,-4100.081,-12143.211,3870.041,-9444.044
27.238128,240,2025,363,85,-71,62,-4103.548,-12128.940,3880.984,-9456.378
27.258148,218,2044,339,88,-50,47,-4103.611,-12117.262,3886.902,-9468.884
27.278137,205,2014,388,74,-8,37,-4096.215,-12111.351,3887.302,-9479.479
27.298156,335,2047,388,38,66,28,-4079.623,-12113.957,3880.777,-9485.975,292,-79,222
27.318145,220,2005,284,-24,129,4,-4060.812,-12122.066,3868.212,-9488.819
27.338165,238,2009,353,-21,131,-31,-4042.358,-12130.907,3849.004,-9493.210
27.358154,278,2034,416,4,165,-57,-4023.987,-12136.937,3825.838,-9502.667
27.378143,205,2020,392,33,178,-55,-4003.334,-12144.109,3801.089,-9512.154
27.398162,322,1943,448,0,201,-56,-3982.491,-12156.445,3774.772,-9515.626,292,-84,224
27.418151,371,1964,422,-32,191,-90,-3963.472,-12170.375,3747.672,-9516.472,292,-84,224,34027
27.438140,419,1963,320,-32,173,-93,-3947.418,-12181.705,3726.670,-9516.896
27.458160,268,2035,345,-23,122,-63,-3936.776,-12188.907,3708.768,-9519.075
27.478149,286,2061,459,2,108,-86,-3932.368,-12199.827,3683.550,-9516.701
27.498138,165,2031,435,-43,118,-157,-3930.241,-12219.372,3654.864,-9503.555,288,-87,219
27.518127,71,1996,470,-103,111,-187,-3921.624,-12242.906,3616.976,-9491.313
27.538147,183,1997,524,-74,228,-197,-3904.325,-12264.730,3565.508,-9489.743
27.558136,186,2085,478,-5,313,-209,-3884.228,-12283.934,3506.632,-9495.088
27.578125,271,2021,551,18,327,-219,-3860.580,-12300.866,3452.296,-9502.721
27.598144,296,1982,416,22,317,-152,-3828.894,-12312.744,3406.414,-9516.705,289,-86,222
27.618133,594,4420,651,66,320,-89,-3792.123,-12314.918,3351.568,-9548.037
27.638122,115,1590,1475,235,436,-128,-3759.297,-12356.920,3321.665,-9517.152
27.658142,253,3771,3548,-701,452,-148,-3619.791,-12478.534,3311.417,-9415.585
27.678131,171,1431,2775,-1238,810,327,-3225.014,-12713.868,3332.939,-9234.922
27.698120,1234,-391,777,-2327,2406,1153,-2623.913,-12974.475,3209.913,-9105.491,285,-91,229
27.718109,2116,2679,-390,-1327,3562,320,-2187.216,-13101.265,2684.443,-9208.807
27.738128,1062,3305,157,656,3878,-1782,-1863.759,-13096.895,1997.445,-9457.451
27.758117,1088,5844,1419,1524,3740,-2181,-1758.520,-13081.279,1259.782,-9624.766
27.778106,1503,4288,1621,761,2594,-3341,-1758.973,-13169.213,641.773,-9565.636
27.798126,1917,3702,1832,-581,1948,-2514,-1691.762,-13282.108,229.923,-9439.603,292,-89,229
27.818115,1559,2897,2409,-791,1573,-1518,-1500.508,-13405.342,26.818,-9299.461
27.838104,1600,3309,2740,-1020,1531,15,-1186.319,-13545.333,-60.541,-9140.480
27.858123,1895,2771,2646,-1089,2022,607,-757.389,-13687.618,-218.078,-8970.137
27.878112,2782,1947,1637,-1153,2940,242,-211.886,-13804.635,-565.789,-8803.548
27.898101,3352,1566,663,-851,4042,-280,417.687,-13835.688,-1080.902,-8698.641,321,-102,255
27.918121,4036,2500,190,-102,4832,-866,1095.837,-13745.623,-1684.818,-8686.415,321,-102,255,34000
27.938110,4392,3105,71,600,5091,-1203,1718.577,-13577.013,-2318.992,-8704.534
27.958129,4235,3478,-15,635,4710,-1493,2250.067,-13403.605,-2923.541,-8670.001
27.978118,3841,2982,-343,192,4257,-1574,2691.768,-13259.378,-3496.330,-8553.033
27.998138,3712,2439,-653,-387,3825,-1570,3049.977,-13139.352,-4057.819,-8368.070,317,-85,207
28.018127,3465,2711,-649,-785,3491,-1744,3303.318,-13011.237,-4631.276,-8172.057
28.038116,3145,3104,-62,-878,3003,-2159,3428.599,-12891.868,-5179.298,-7978.393
28.058105,2276,2253,212,-1158,2252,-2262,3433.494,-12818.994,-5673.904,-7754.145
28.078125,1478,1251,50,-1597,1648,-2141,3362.543,-12772.035,-6139.905,-7503.693
28.098114,1387,1460,50,-1727,1407,-2178,3261.022,-12698.179,-6592.315,-7286.892,362,-92,228
28.118103,969,1053,314,-1399,1135,-2243,3166.825,-12597.974,-6983.967,-7135.959
28.138122,495,792,361,-956,914,-1972,3078.042,-12495.355,-7305.495,-7032.563
28.158111,272,1149,370,-694,720,-1738,3000.491,-12377.197,-7604.454,-6957.712
28.178131,283,1462,630,-500,684,-1750,2919.215,-12244.556,-7889.794,-6909.095
28.198120,-123,1323,803,-403,542,-1734,2811.454,-12123.749,-8148.773,-6866.103,385,-73,147
28.218109,-175,1240,843,-530,317,-1638,2665.962,-12032.821,-8370.772,-6816.851
28.238098,-139,1562,872,-646,33,-1450,2506.867,-11963.104,-8548.562,-6779.179
28.258117,-242,1430,902,-628,-160,-1191,2351.793,-11928.176,-8663.241,-6750.658
28.278106,-210,1397,902,-605,-292,-767,2226.857,-11932.707,-8713.766,-6719.919
28.298126,-188,1226,921,-554,-326,-327,2128.027,-11965.328,-8718.406,-6687.843,345,-71,168
28.318115,-59,1556,839,-511,-333,-35,2057.576,-12013.626,-8692.263,-6657.263
28.338104,45,1835,887,-399,-270,198,2038.619,-12072.960,-8636.809,-6627.867
28.358093,160,1573,864,-253,-105,486,2070.597,-12146.950,-8557.164,-6585.941
28.378173,400,1026,607,-208,85,716,2140.293,-12226.203,-8472.375,-6526.362
28.398101,852,762,244,-151,274,810,2262.716,-12295.767,-8383.570,-6468.802,304,-70,192
28.418090,1323,-78,497,154,496,934,2467.268,-12345.478,-8266.209,-6450.347,304,-70,192,34029
28.438110,2048,1113,1064,668,587,1224,2702.782,-12340.260,-8083.133,-6596.313
28.458099,2243,1586,-647,2148,102,842,3046.916,-12225.670,-7994.057,-6766.075
28.478088,2059,1417,-68,2125,625,819,3414.484,-12126.625,-7882.562,-6898.326
28.498107,1339,1534,-861,1715,662,826,3723.642,-12047.767,-7787.181,-6984.343,263,-77,220
28.518096,1400,1899,-901,1427,970,692,4009.237,-11952.848,-7718.310,-7065.306
28.538116,2866,773,-634,1348,848,457,4201.747,-11848.939,-7687.145,-7161.786
28.558105,1648,3453,-88,953,167,-155,4378.911,-11672.815,-7747.393,-7279.002
28.578094,1240,801,356,793,1181,-1142,4544.038,-11426.544,-8131.862,-7148.010
28.598114,184,-29,-865,-76,1467,-1386,4614.087,-11310.192,-8437.395,-6930.767,280,-86,227
28.618103,1969,471,-2180,-1239,2174,-878,4728.331,-11188.082,-8696.475,-6728.778
28.638092,1000,599,389,-24,1602,-828,4966.039,-11001.191,-8907.246,-6588.525
28.658111,1027,1133,325,382,1849,-750,5137.726,-10793.969,-9147.498,-6469.368
28.678100,1802,1218,-590,72,2029,-1256,5217.600,-10529.657,-9459.823,-6391.411
28.698120,1562,1050,-136,-265,1637,-1848,5299.841,-10280.615,-9745.374,-6299.505,327,-67,172
28.718109,1436,477,-339,137,1138,-1616,5346.372,-10053.364,-10022.906,-6190.554
28.738098,218,997,-620,-155,997,-1339,5393.175,-9889.807,-10203.934,-6117.231
28.758117,268,1393,-116,16,1150,-917,5462.624,-9738.598,-10346.406,-6058.611
28.778106,-87,1266,-76,101,912,-701,5542.789,-9615.764,-10453.023,-5998.692
28.798095,-57,1305,147,141,926,-454,5625.021,-9508.129,-10537.252,-5946.122,319,-59,147
28.818115,-54,1133,129,170,811,-385,5699.070,-9412.716,-10606.847,-5903.524
28.838104,-117,1205,113,178,681,-318,5768.792,-9333.985,-10654.078,-5875.697
28.858093,-205,1368,130,249,531,-209,5842.398,-9267.397,-10676.843,-5867.041
28.878112,-290,1786,280,356,413,-122,5924.193,-9206.757,-10679.303,-5876.008
28.898101,-390,2067,382,459,330,-60,6001.498,-9154.563,-10672.280,-5891.848,304,-46,128
28.918090,-567,2101,558,397,273,-29,6058.499,-9113.769,-10669.290,-5902.159,304,-46,128,34005
28.938079,-643,1664,478,260,214,-35,6098.607,-9079.419,-10671.333,-5910.095
28.958099,-578,1429,312,209,168,-64,6141.013,-9043.127,-10670.511,-5923.296
28.978088,-441,1781,262,315,178,-38,6211.132,-9005.341,-10649.016,-5946.391
28.998107,-393,2215,369,514,181,91,6305.566,-8971.222,-10602.881,-5980.916,280,-55,139
29.018096,-506,2619,706,640,128,167,6386.211,-8937.020,-10555.339,-6030.442
29.038085,-698,2317,772,556,-13,33,6423.119,-8909.746,-10527.537,-6079.996
29.058074,-495,1508,670,310,-119,-59,6443.236,-8896.683,-10493.576,-6136.286
29.078094,-215,1094,141,429,-226,49,6500.900,-8894.740,-10408.091,-6223.259
29.098083,-163,1595,-187,854,-396,304,6623.378,-8905.037,-10237.558,-6360.741,282,-53,121
29.118072,-196,2687,-22,1449,-533,667,6811.695,-8917.462,-9999.815,-6520.645
29.138092,-295,3378,322,1712,-532,901,6988.118,-8938.298,-9757.971,-6670.117
29.158111,-299,3196,149,1409,-591,832,7099.857,-8972.032,-9567.192,-6782.251
29.178070,-168,2552,22,922,-533,626,7160.228,-9013.527,-9425.858,-6861.202
29.198089,42,2429,-324,578,-476,510,7221.617,-9055.577,-9295.665,-6918.874,281,-33,106
29.218078,156,2608,-251,620,-358,610,7328.635,-9088.848,-9141.303,-6968.210
29.238067,84,2958,-236,852,-231,799,7466.880,-9112.604,-8973.943,-7007.847
29.258087,-36,3328,-274,905,-121,840,7603.861,-9121.090,-8825.563,-7037.888
29.278106,-81,3501,-257,817,0,696,7723.250,-9109.448,-8714.708,-7061.065
29.298095,22,3558,-287,674,106,486,7832.218,-9082.530,-8632.333,-7076.883,284,-30,81
29.318084,97,3629,-411,625,201,398,7949.975,-9046.742,-8553.597,-7087.013
29.338104,123,3771,-560,682,287,431,8090.261,-8996.521,-8461.910,-7102.238
29.358093,50,4013,-645,895,319,464,8260.225,-8925.212,-8344.662,-7135.215
29.378082,55,4276,-898,1164,365,522,8471.330,-8831.715,-8202.459,-7168.854
29.398101,41,4292,-1257,1403,525,682,8724.386,-8710.537,-8036.593,-7201.404,310,-35,40
29.418090,-24,4556,-1571,1672,668,708,8988.383,-8542.212,-7864.505,-7268.051,310,-35,40,33960
29.438079,182,4991,-1796,1884,784,416,9237.028,-8341.173,-7708.720,-7356.168
29.458068,209,4757,-1939,1881,760,227,9463.201,-8126.874,-7572.208,-7449.755
29.478088,163,4443,-2232,1772,731,66,9661.643,-7919.531,-7446.508,-7544.443
29.498077,156,3789,-2200,1662,654,27,9843.158,-7719.811,-7317.734,-7642.182,342,-43,13
29.518066,36,4458,-2042,1617,537,-7,9999.274,-7536.062,-7202.619,-7731.753
29.538085,-155,3998,-1692,1362,485,-52,10110.307,-7383.147,-7127.499,-7804.167
29.558074,-212,3526,-1607,943,421,-136,10166.772,-7273.826,-7116.132,-7843.742
29.578063,-259,3327,-1558,373,386,-220,10185.166,-7198.984,-7160.029,-7848.977
29.598144,-193,2755,-1238,-54,406,-242,10184.029,-7150.308,-7224.184,-7836.149,357,-64,-34
29.618072,-195,2658,-1112,-219,352,-186,10171.419,-7129.444,-7296.063,-7804.879
29.638092,-205,2463,-905,-392,272,-113,10146.887,-7134.831,-7365.912,-7766.186
29.658081,-219,2536,-782,-470,177,-42,10116.731,-7159.472,-7429.514,-7722.142
29.678070,-142,1994,-535,-499,83,25,10087.396,-7200.569,-7479.404,-7673.995
29.698059,-80,1674,-530,-517,30,145,10064.120,-7260.928,-7522.953,-7604.803,350,-71,-105
29.718078,-5,1556,-441,-580,14,299,10048.420,-7332.069,-7554.851,-7525.268
29.738067,-8,1308,-400,-523,-13,374,10036.342,-7401.006,-7574.406,-7453.908
29.758087,20,1224,-351,-449,-50,334,10015.870,-7464.838,-7591.000,-7400.722
29.778076,63,1269,-338,-416,-119,223,9983.495,-7527.475,-7606.057,-7365.478
29.798065,49,1342,-225,-395,-202,156,9945.740,-7596.058,-7613.790,-7338.105,344,-86,-115
29.818084,82,1484,-187,-378,-277,181,9908.483,-7676.134,-7613.493,-7305.415
29.838073,42,1514,-169,-402,-303,278,9874.548,-7768.818,-7607.193,-7259.808
29.858062,-24,1778,-129,-450,-310,371,9838.675,-7868.357,-7606.202,-7202.121
29.878051,-78,1789,-33,-536,-279,377,9789.501,-7967.359,-7627.048,-7137.957
29.898071,-113,1630,-45,-691,-230,271,9719.148,-8061.900,-7683.049,-7067.541,340,-83,-105
29.918060,-92,1299,-128,-877,-176,125,9633.601,-8149.201,-7768.182,-6991.069,340,-83,-105,33995
29.938049,-61,981,-153,-970,-91,24,9550.348,-8224.090,-7859.178,-6915.486
29.958068,-63,836,-168,-897,-42,0,9481.947,-8283.043,-7938.143,-6848.736
29.978088,-37,815,-194,-727,-15,3,9433.780,-8325.156,-7997.992,-6794.345
29.998077,-25,886,-115,-519,23,27,9406.317,-8351.781,-8038.056,-6752.336,363,-79,-93
30.018066,-34,964,-77,-342,48,45,9391.180,-8369.683,-8068.016,-6715.406
30.038055,-16,870,-37,-283,83,62,9380.892,-8385.813,-8097.390,-6674.182
30.058044,-13,721,-73,-294,113,89,9374.620,-8401.879,-8127.121,-6626.482
30.078063,-36,612,-68,-290,142,115,9376.773,-8414.324,-8152.908,-6575.772
30.098053,-17,553,-77,-244,186,148,9388.960,-8420.180,-8176.124,-6521.842,372,-74,-65
30.118072,-2,563,17,-206,243,163,9406.102,-8420.423,-8201.172,-6465.132
30.138061,22,522,70,-206,281,150,9419.437,-8418.984,-8234.031,-6405.550
30.158081,26,433,23,-268,290,117,9426.931,-8418.421,-8274.668,-6342.591
30.178070,20,349,53,-303,303,106,9437.314,-8418.152,-8313.279,-6276.673
30.198059,42,365,92,-275,308,141,9455.866,-8415.970,-8344.231,-6210.257,372,-70,-42
30.218048,74,562,116,-217,326,176,9480.464,-8410.837,-8368.920,-6146.155
30.238037,83,774,135,-171,331,174,9504.179,-8402.908,-8393.648,-6086.363
30.258056,109,941,184,-176,322,141,9519.001,-8395.185,-8427.247,-6027.141
30.278076,93,1038,209,-257,311,90,9518.619,-8390.139,-8476.997,-5964.680
30.298065,95,1057,186,-382,305,26,9503.363,-8387.479,-8544.087,-5896.634,379,-65,-31
30.318054,127,1165,151,-494,311,-18,9483.658,-8384.592,-8618.853,-5823.198
30.338043,151,1406,206,-514,335,-15,9469.826,-8378.267,-8689.532,-5749.304
30.358062,169,1584,209,-452,351,1,9463.221,-8366.980,-8752.164,-5681.210
30.378051,107,1738,241,-375,356,-6,9457.970,-8348.152,-8815.026,-5620.134
30.398071,106,1945,297,-363,367,-68,9447.218,-8318.398,-8889.328,-5565.034
30.418060,104,2004,314,-390,391,-182,9427.046,-8276.530,-8978.705,-5517.983,387,-48,-21,34005
30.438049,55,1966,340,-428,404,-306,9394.312,-8224.745,-9082.833,-5480.697
30.458038,22,1621,441,-465,389,-443,9357.334,-8160.771,-9191.078,-5459.087
30.478118,-16,1762,257,-352,381,-524,9334.231,-8084.007,-9283.201,-5456.974
