;Title, http://www.gcdataconcepts.com, HAM-IMU, MPU-9250
;Version, 1191, Build date, Nov 15 2016,  SN:CCDC3016FE411C6
;Start_time, 2007-01-05, 22:58:11.612
;Temperature, -999.00, deg C,  Vbat, 4082, mv
;MPU SR, 200,Hz,  Accel sens, 2048,counts/g, Gyro sens, 16,counts/dps,  Mag SR, 10,Hz,  Mag sens, 1666,counts/mT
;Deadband, 0, counts
;DeadbandTimeout, 5,sec
;Time, Ax, Ay, Az, Gx, Gy, Gz, Qw, Qx, Qy, Qz, Mx, My, Mz, T
0.001587,1715,2678,-1239,-375,-514,-188,-8083.867,8998.165,1925.473,10881.732
0.001953,1353,2289,-1696,-504,-113,-445,-7997.821,9052.529,1957.065,10894.581
0.019501,874,2226,-1694,-332,-381,-478,-7912.292,9090.959,2003.629,10916.547,-200,-162,-76
0.039520,783,2229,-1218,-217,-27,-541,-7854.607,9083.686,2068.675,10952.069
0.059509,816,1962,-1080,-38,54,-486,-7797.411,9068.076,2115.059,10996.924
0.079529,810,1849,-801,68,-40,-509,-7737.060,9044.790,2140.387,11053.680
0.099548,1061,1740,-1134,190,-97,-466,-7693.224,9014.543,2119.661,11112.821,-201,-184,-70,28406
0.119538,843,1465,-915,362,-154,-314,-7674.076,8953.704,2120.351,11174.940
0.139557,790,1483,-758,444,82,-235,-7682.857,8909.424,2117.487,11204.800
0.159577,447,1658,-448,172,156,-15,-7714.282,8886.569,2127.661,11199.429
0.179566,198,2057,-516,95,189,138,-7744.777,8873.833,2097.311,11194.205
0.199585,149,2117,-685,208,-129,259,-7750.854,8862.692,2030.255,11211.175,-210,-165,-75
0.219605,237,2338,-1053,304,-277,141,-7714.089,8875.915,1991.804,11232.947
0.239594,419,2908,-1254,-8,-381,-129,-7644.139,8920.311,1979.130,11247.829
0.259613,540,3594,-1480,-235,-428,-241,-7564.934,8982.745,1972.222,11252.903
0.279602,700,3025,-1359,-221,-459,-204,-7497.828,9030.508,1931.183,11266.697
0.299622,590,2669,-1166,-44,-568,-57,-7420.576,9106.583,1908.940,11260.398,-208,-158,-75
0.319611,444,2379,-1011,-450,-480,-263,-7307.304,9189.680,1934.074,11262.676
0.339661,514,2099,-1123,-474,-481,-564,-7173.759,9280.277,1946.203,11272.150
0.359650,583,1847,-1060,-443,-700,-460,-7034.512,9369.700,1928.151,11289.022
0.379669,555,1706,-873,-299,-797,-490,-6891.347,9452.957,1919.112,11309.437
0.399658,479,1477,-488,-377,-690,-545,-6754.254,9529.242,1931.990,11325.918,-212,-162,-62
0.419708,303,1338,-650,-330,-593,-565,-6620.424,9600.795,1967.233,11338.437
0.439697,376,1317,-564,-429,-389,-640,-6503.719,9671.886,2005.541,11338.848
0.459686,245,1442,-591,-501,-395,-464,-6412.111,9745.832,2035.409,11322.373
0.479706,175,1606,-502,-442,-365,-322,-6338.286,9805.422,2050.965,11309.677
0.499695,295,1729,-630,-294,-296,-195,-6291.316,9842.982,2040.815,11305.111,-206,-142,-50
0.519715,310,1834,-676,-102,-251,-90,-6263.362,9856.577,2028.331,11311.034
0.539734,321,1973,-734,32,-168,-33,-6254.672,9853.509,2002.872,11323.046
0.559754,253,1988,-740,134,-130,90,-6266.957,9837.610,1955.995,11338.262
0.579743,328,1986,-821,267,-110,214,-6284.432,9806.731,1899.771,11364.868
0.599732,590,2823,-430,374,-121,177,-6309.979,9758.863,1829.894,11403.319,-202,-126,-21,28419
0.619782,1228,2637,-1022,615,-92,325,-6368.509,9658.398,1719.366,11473.302
0.639801,894,1664,-1099,1011,-53,385,-6392.889,9563.416,1648.128,11549.508
0.659790,365,2241,6,526,40,-60,-6389.705,9546.621,1692.486,11558.746
0.679779,366,2701,214,-153,193,-274,-6332.268,9570.988,1738.791,11563.330
0.699799,610,2477,-383,-206,-234,-372,-6235.820,9607.668,1713.953,11589.006,-194,-130,-34
0.719818,365,2403,-703,15,-602,-303,-6159.970,9643.978,1687.298,11603.315
0.739807,241,2403,-722,-124,-378,-164,-6119.899,9674.017,1665.074,11602.724
0.759827,198,2245,-584,-25,-264,31,-6111.469,9685.122,1589.286,11608.529
0.779846,385,2103,-649,202,-439,392,-6136.007,9686.386,1413.210,11617.298
0.799835,245,1966,-596,587,-727,865,-6194.273,9666.220,1172.316,11629.973,-209,-140,-39
0.819855,187,1809,-458,777,-829,1076,-6244.441,9635.471,907.010,11652.357
0.839874,534,1643,-441,761,-910,1058,-6247.194,9618.682,641.806,11682.339
0.859863,686,1582,-461,753,-1070,663,-6195.433,9614.139,445.294,11722.717
0.879883,714,1532,-464,422,-915,209,-6125.039,9616.600,306.631,11762.071
0.899902,689,1626,-513,519,-819,13,-6024.711,9618.237,156.037,11815.391,-202,-138,-35
0.919892,688,1574,-528,465,-1038,-73,-5880.836,9634.882,8.330,11875.191
0.939911,835,1664,-596,439,-1166,-272,-5706.992,9655.757,-140.715,11942.036
0.959900,907,1689,-587,439,-1280,-401,-5522.155,9672.993,-285.247,12012.205
0.979920,923,1708,-640,471,-1219,-476,-5334.078,9670.798,-416.600,12094.840
0.999939,874,1750,-629,627,-1167,-522,-5141.785,9644.605,-540.006,12193.747,-159,-149,-34
1.019928,1029,1686,-600,717,-1083,-588,-4953.900,9601.757,-665.654,12298.677
1.039948,1100,1610,-574,803,-1031,-536,-4782.454,9555.169,-783.037,12395.530
1.059967,1031,1687,-730,775,-956,-496,-4627.614,9514.850,-890.817,12477.768
1.079956,788,2154,-783,633,-860,-419,-4486.569,9473.515,-990.705,12552.973
1.099976,398,2143,-950,672,-773,-392,-4340.274,9408.077,-1095.080,12644.616,-151,-163,-18,28431
1.119995,162,2177,-956,857,-876,-421,-4172.692,9347.559,-1217.904,12734.360
1.139984,14,2095,-775,727,-1029,-429,-3985.853,9317.076,-1359.047,12802.089
1.160004,219,2141,-540,567,-1295,-417,-3769.685,9320.848,-1525.831,12845.954
1.180023,454,2153,-547,388,-1500,-488,-3548.873,9332.229,-1696.426,12879.152
1.200012,651,2052,-734,451,-1452,-421,-3342.342,9321.126,-1857.047,12920.223,-147,-172,-20
1.220093,845,1954,-761,565,-1320,-426,-3147.525,9292.990,-2008.766,12966.639
1.240021,995,1941,-779,557,-1212,-409,-2960.616,9267.926,-2143.530,13006.960
1.260040,965,1818,-691,500,-1138,-457,-2775.443,9253.578,-2258.891,13038.445
1.280060,829,1705,-654,353,-1038,-536,-2589.229,9260.524,-2355.433,13054.729
1.300049,567,1612,-703,218,-1047,-578,-2390.218,9289.101,-2435.309,13057.724,-139,-166,-14
1.320069,470,1559,-749,69,-1006,-728,-2186.044,9325.833,-2495.956,13055.868
1.340088,288,1511,-737,39,-952,-774,-1996.555,9351.050,-2548.775,13057.979
1.360077,189,1509,-713,111,-839,-692,-1825.232,9367.043,-2585.147,13064.436
1.380097,258,1465,-698,122,-687,-639,-1676.813,9368.856,-2634.442,13073.178
1.400086,312,1516,-642,212,-719,-426,-1554.822,9356.296,-2703.132,13083.225,-134,-157,-5
1.420105,397,1560,-620,258,-696,-241,-1456.186,9330.560,-2784.924,13095.794
1.440125,447,1473,-613,304,-659,-120,-1369.729,9295.842,-2866.907,13112.110
1.460114,511,1441,-671,359,-621,-64,-1297.620,9253.977,-2948.966,13130.846
1.480164,458,1453,-715,375,-552,23,-1247.509,9205.150,-3031.538,13151.203
1.500153,395,1537,-786,374,-479,106,-1209.223,9148.751,-3117.856,13173.934,-131,-145,20
1.520172,293,1624,-847,430,-480,185,-1174.933,9083.168,-3203.960,13201.729
1.540161,323,1590,-907,494,-461,217,-1146.465,9003.724,-3297.552,13235.564
1.560181,405,1494,-924,545,-465,277,-1122.923,8914.142,-3402.826,13271.523
1.580170,413,1328,-828,584,-505,329,-1097.587,8822.241,-3514.245,13305.971
1.600189,427,1140,-792,590,-528,316,-1066.011,8742.029,-3616.191,13334.134,-134,-157,34,28435
1.620178,403,848,-712,483,-492,214,-1027.388,8684.124,-3697.343,13352.736
1.640198,443,760,-439,333,-430,101,-990.601,8651.065,-3759.589,13359.592
1.660217,589,865,-238,176,-349,39,-968.656,8634.457,-3806.120,13358.770
1.680206,608,1311,-264,109,-249,55,-939.794,8611.759,-3836.850,13366.690
1.700226,707,2419,-443,227,-148,-19,-909.669,8577.508,-3851.786,13386.487,-134,-166,29
1.720246,852,2767,-1325,332,-143,-93,-823.986,8507.387,-3896.597,13423.761
1.740265,1182,2563,-1618,751,-575,-199,-688.058,8439.298,-3983.053,13448.998
1.760254,1711,2930,-1068,395,-858,-334,-550.636,8449.800,-4062.345,13424.994
1.780274,1445,2690,-896,-148,-709,-475,-434.057,8513.680,-4104.998,13375.846
1.800293,1065,2482,-1127,-247,-648,-507,-310.884,8574.344,-4165.489,13321.716,-115,-169,34
1.820282,1141,2445,-1369,-262,-766,-454,-169.935,8627.220,-4235.699,13267.874
1.840302,676,2085,-1310,-133,-856,-515,-52.519,8657.602,-4287.411,13232.411
1.860321,708,1870,-890,-96,-604,-395,75.893,8684.584,-4339.057,13197.737
1.880310,872,1797,-763,-32,-755,-511,235.411,8708.988,-4397.414,13160.406
1.900330,864,1698,-772,40,-807,-647,401.565,8729.819,-4430.957,13131.300,-118,-172,37
1.920349,707,1574,-801,63,-674,-691,564.686,8746.681,-4463.012,13103.193
1.940338,752,1682,-649,59,-695,-685,727.464,8764.753,-4492.538,13072.966
1.960358,912,1524,-521,109,-692,-675,891.336,8750.730,-4525.402,13060.873
1.980377,984,1397,-661,357,-648,-616,1041.133,8714.369,-4562.786,13061.096
2.000366,1031,1301,-551,393,-687,-428,1183.732,8697.888,-4581.168,13053.500,-127,-157,68
2.020386,696,1431,-294,153,-397,-693,1306.472,8727.947,-4541.882,13035.444
2.040375,479,1677,-241,-21,-156,-764,1416.444,8779.079,-4477.466,13011.886
2.060394,279,1850,-406,-122,-32,-740,1500.840,8821.237,-4434.552,12988.589
2.080383,307,1864,-537,-58,-148,-493,1567.262,8853.203,-4432.719,12959.587
2.100403,376,2016,-676,-207,-246,-292,1604.358,8894.000,-4456.014,12919.063,-137,-144,73,28429
2.120423,455,2447,-744,-303,-275,-67,1625.660,8930.099,-4500.418,12876.033
2.140412,397,3395,-897,-321,-299,14,1641.884,8944.531,-4536.519,12851.265
2.160431,429,3428,-1759,-127,-184,37,1652.416,8902.338,-4571.897,12866.666
2.180451,547,2649,-1173,514,-294,308,1644.574,8811.325,-4643.944,12904.462
2.200440,212,2372,-700,298,-244,408,1620.151,8794.601,-4695.810,12900.190,-141,-121,79
2.220459,293,2023,-766,-88,-258,292,1661.002,8788.443,-4766.606,12873.198
2.240479,402,1936,-1091,17,-586,-131,1770.331,8792.322,-4813.055,12838.650
2.260498,513,1926,-1186,-11,-599,-442,1882.086,8773.447,-4865.185,12815.997
2.280487,620,1835,-1006,238,-684,-249,1995.681,8717.383,-4931.706,12811.643
2.300507,466,1765,-810,381,-686,-201,2102.725,8662.033,-4983.065,12812.190,-139,-124,91
2.320496,429,1692,-781,363,-561,-235,2206.895,8617.673,-5019.130,12810.507
2.340515,398,1562,-775,302,-491,-291,2301.851,8585.888,-5048.353,12803.655
2.360504,369,1526,-735,226,-440,-268,2381.825,8561.478,-5075.530,12794.625
2.380524,407,1421,-754,174,-396,-210,2446.246,8530.715,-5106.130,12790.842
2.400543,437,1403,-793,205,-333,-87,2476.923,8484.401,-5137.853,12803.034,-134,-121,93
2.420563,346,1357,-743,294,-224,173,2467.107,8408.589,-5173.026,12840.726
2.440613,211,1379,-858,458,-101,403,2450.525,8313.505,-5195.449,12896.639
2.460571,199,1488,-934,562,-5,305,2466.551,8215.010,-5197.977,12955.547
2.480591,271,1488,-1035,663,-68,98,2502.851,8103.705,-5191.064,13021.290
2.500580,369,1346,-1019,801,-74,133,2531.817,7969.670,-5197.777,13095.526,-149,-127,108
2.520600,430,1145,-872,859,-142,236,2569.580,7842.261,-5211.901,13159.320
2.540589,600,1601,-592,784,-214,178,2606.001,7729.337,-5234.367,13209.956
2.560608,960,1722,-698,617,-174,152,2645.329,7611.903,-5241.008,13267.570
2.580628,824,1950,-879,876,-154,21,2713.881,7500.293,-5215.591,13327.172
2.600617,729,2286,-1054,760,-2,-182,2773.168,7424.718,-5181.973,13370.329,-134,-124,81,28445
2.620636,649,2603,-1024,480,-4,-160,2817.998,7378.698,-5172.352,13390.142
2.640656,920,2905,-1151,282,-176,-61,2857.161,7356.720,-5209.312,13379.603
2.660645,1420,3155,-1270,17,-422,-24,2903.909,7341.024,-5284.343,13348.702
2.680664,1557,3178,-1584,-5,-577,-48,2962.472,7326.567,-5358.167,13314.302
2.700684,993,3071,-1448,28,-524,-147,3013.698,7338.607,-5407.330,13276.245,-136,-138,66
2.720673,591,2803,-1312,-198,-388,-154,3047.603,7367.443,-5474.065,13225.088
2.740692,479,2338,-1184,-253,-569,-54,3108.664,7377.440,-5572.290,13164.140
2.760681,481,1970,-1214,-118,-836,-127,3205.474,7364.279,-5692.955,13096.489
2.780701,610,1750,-1074,-54,-1029,-141,3302.694,7341.247,-5826.285,13026.440
2.800690,725,1540,-964,-54,-1031,-105,3396.419,7313.870,-5956.872,12958.501,-127,-138,68
2.820709,755,1343,-878,-5,-1004,-115,3485.729,7284.078,-6079.531,12894.442
2.840729,732,1223,-788,-1,-928,-110,3567.688,7254.928,-6192.471,12834.577
2.860748,667,1202,-671,25,-856,-97,3651.783,7224.879,-6292.199,12779.251
2.880737,520,1302,-657,60,-811,-172,3752.516,7193.589,-6377.689,12725.228
2.900757,699,1368,-623,116,-796,-268,3868.793,7150.922,-6457.855,12673.921,-120,-124,84
2.920777,680,1458,-600,244,-826,-295,3998.412,7104.322,-6529.753,12622.958
2.940766,1023,1480,-505,245,-816,-406,4130.771,7043.813,-6604.653,12575.191
2.960785,1154,1592,-565,325,-774,-340,4241.437,6992.115,-6661.378,12537.225
2.980774,1316,1867,-769,337,-632,-274,4329.324,6939.686,-6709.231,12510.770
3.000794,975,2462,-770,305,-506,-172,4397.057,6878.014,-6731.941,12509.005,-127,-126,100
3.020813,698,2489,-1073,513,-305,-104,4483.834,6783.951,-6742.219,12524.023
3.040833,443,2312,-1134,663,-405,-76,4552.271,6694.351,-6776.925,12528.815
3.060822,258,2043,-737,379,-470,60,4606.347,6645.336,-6844.798,12498.210
3.080841,-19,2039,-641,89,-672,-22,4672.285,6625.819,-6939.048,12431.947
3.100861,48,2024,-641,-85,-836,-135,4773.166,6604.209,-7047.731,12343.671,-131,-126,104,28431
3.120850,494,2077,-833,40,-1057,-307,4918.055,6564.135,-7149.011,12249.569
3.140869,903,1924,-781,191,-1084,-458,5075.642,6512.885,-7236.779,12160.783
3.160858,1211,1884,-563,251,-1019,-492,5217.510,6476.540,-7310.772,12075.598
3.180878,1174,1793,-645,137,-848,-499,5344.889,6479.217,-7364.519,11985.457
3.200897,939,1769,-690,-67,-670,-687,5467.179,6530.036,-7399.297,11880.842,-137,-125,108
3.220917,592,1832,-777,-307,-512,-811,5561.264,6626.613,-7415.914,11772.850
3.240906,432,1751,-735,-482,-329,-778,5642.051,6716.281,-7428.730,11675.112
3.260925,259,1665,-758,-397,-337,-696,5725.449,6775.595,-7445.185,11589.443
3.280914,170,1703,-653,-246,-356,-636,5813.694,6836.832,-7438.992,11513.276
3.300934,192,1796,-751,-141,-229,-648,5890.591,6872.255,-7430.724,11458.307,-133,-120,126
3.320954,263,1873,-736,-18,-223,-457,5958.067,6882.223,-7425.800,11420.567
3.340943,343,1944,-725,66,-231,-310,6014.248,6873.399,-7429.093,11394.263
3.360962,382,1946,-675,110,-244,-213,6065.134,6855.762,-7437.782,11372.225
3.380951,445,2011,-698,145,-280,-146,6110.434,6825.320,-7455.462,11354.696
3.400971,361,2037,-731,162,-296,-41,6139.678,6778.997,-7478.648,11351.423,-157,-91,152
3.420990,427,2063,-753,213,-255,124,6154.825,6708.223,-7504.857,11367.956
3.440979,447,2056,-808,335,-265,294,6165.390,6618.439,-7530.601,11397.793
3.460999,425,2054,-777,414,-222,340,6172.129,6523.194,-7544.927,11439.504
3.480988,542,2001,-815,485,-168,372,6183.743,6422.822,-7554.269,11483.776
3.501007,629,2073,-742,501,-176,326,6199.370,6329.128,-7557.306,11525.299,-172,-84,148
3.521027,798,2322,-662,473,-102,270,6205.040,6242.570,-7545.058,11577.362
3.541046,940,2361,-864,554,30,325,6212.117,6151.191,-7510.277,11644.897
3.561035,1022,1547,-756,589,148,222,6227.512,6080.442,-7474.504,11696.732
3.581055,843,1470,-555,411,160,49,6194.779,6106.750,-7447.436,11717.655
3.601074,532,1731,-336,-162,260,68,6140.522,6174.749,-7425.729,11724.353,-166,-92,146,28425
3.621063,693,1807,-435,-483,386,-16,6100.315,6231.181,-7420.319,11718.909
3.641083,688,1996,-498,-297,185,8,6067.060,6275.091,-7405.811,11721.920
3.661163,438,2231,-873,-173,256,-11,6037.683,6303.126,-7373.297,11742.526
3.681091,277,2355,-947,-50,346,36,6010.248,6308.647,-7338.163,11775.597
3.701111,254,2231,-872,84,253,146,5988.709,6294.528,-7318.370,11806.404,-168,-101,128
3.721131,434,1982,-752,133,91,196,5975.776,6258.705,-7325.682,11827.447
3.741120,540,1722,-703,124,-96,248,5972.187,6215.137,-7348.473,11838.092
3.761139,611,1613,-759,182,-203,192,5974.444,6166.365,-7373.752,11846.736
3.781128,571,1564,-828,167,-194,176,5978.814,6121.156,-7395.098,11854.669
3.801148,597,1587,-821,163,-165,148,5991.331,6081.889,-7412.296,11857.819,-164,-93,139
3.821167,683,1595,-680,153,-195,60,6019.010,6046.935,-7432.507,11849.024
3.841156,831,1611,-639,156,-282,-29,6058.998,6016.263,-7458.550,11827.873
3.861176,896,1674,-666,115,-319,-104,6102.175,5995.211,-7482.404,11801.269
3.881195,843,1731,-761,81,-282,-150,6145.052,5982.570,-7496.435,11776.505
3.901184,741,1764,-835,81,-211,-179,6187.456,5973.138,-7500.014,11756.795,-162,-110,116
3.921204,663,1739,-862,103,-158,-196,6233.585,5965.102,-7495.674,11739.262
3.941223,540,1612,-836,122,-143,-224,6283.396,5958.401,-7488.227,11720.848
3.961243,452,1547,-774,127,-145,-247,6337.327,5953.411,-7481.837,11698.407
3.981232,533,1497,-767,114,-168,-277,6394.198,5945.696,-7479.797,11672.660
4.001251,385,1395,-751,124,-211,-271,6450.168,5928.165,-7482.476,11649.041,-168,-104,124
4.021240,687,1412,-669,176,-245,-188,6499.051,5900.365,-7490.386,11630.889
4.041260,733,1367,-702,172,-223,-137,6537.183,5879.120,-7497.426,11615.731
4.061249,792,1431,-743,134,-180,-124,6567.343,5868.792,-7497.964,11603.587
4.081268,728,1589,-801,60,-97,-136,6591.226,5869.973,-7497.327,11589.852
4.101288,726,1583,-804,6,-85,-146,6615.803,5876.855,-7499.744,11570.781,-166,-89,128,28429
4.121277,669,1547,-725,-29,-98,-161,6638.292,5894.539,-7499.136,11549.280
4.141297,688,1618,-854,-81,-60,-198,6664.339,5918.909,-7494.366,11524.886
4.161316,719,1603,-872,-79,-36,-260,6697.030,5951.614,-7477.601,11499.956
4.181336,733,1589,-891,-74,31,-348,6730.962,5991.603,-7449.508,11477.591
4.201325,686,1631,-997,-63,92,-347,6754.173,6032.162,-7414.984,11465.060,-172,-107,116
4.221344,637,1602,-938,-52,179,-287,6756.911,6062.768,-7381.378,11468.988
4.241333,543,1630,-915,-37,231,-110,6747.595,6087.147,-7348.386,11482.737
4.261353,556,1508,-879,-2,229,-47,6741.584,6103.108,-7316.899,11497.893
4.281342,543,1382,-868,22,201,-56,6740.511,6125.532,-7283.827,11507.591
4.301361,393,1305,-700,-35,210,-129,6742.344,6168.459,-7247.414,11506.577,-179,-95,132
4.321381,121,1577,-680,-136,259,-253,6748.625,6243.527,-7190.477,11498.126
4.341370,228,1546,-514,-151,432,-358,6746.738,6257.002,-7158.615,11511.781
4.361389,391,1924,-438,127,51,102,6732.028,6238.357,-7161.133,11528.933
4.381409,458,2292,-628,71,1,157,6727.099,6237.485,-7162.292,11531.562
4.401428,638,2643,-1185,-43,20,-13,6720.995,6234.885,-7167.730,11533.148,-174,-86,139
4.421417,703,2899,-1136,32,-41,124,6697.906,6217.322,-7184.418,11545.672
4.441437,710,3773,-1681,-74,6,244,6658.438,6206.018,-7204.611,11561.987
4.461426,1000,2418,-1265,54,1,372,6624.586,6098.973,-7250.558,11609.574
4.481445,847,2052,-923,301,-403,608,6580.353,6110.283,-7309.168,11592.019
4.501434,716,1640,-862,-647,-33,60,6531.796,6187.712,-7361.883,11544.954,-190,-84,129
4.521454,556,1634,-1050,-681,-77,-64,6517.026,6277.662,-7398.715,11481.018
4.541474,429,1654,-1045,-639,-83,-301,6519.392,6343.448,-7407.299,11437.900
4.561493,526,1699,-795,-284,25,-178,6513.225,6368.247,-7407.849,11427.271
4.581482,704,1713,-648,-76,10,-6,6498.329,6372.673,-7411.389,11430.988
4.601502,685,1771,-612,-66,77,94,6458.102,6395.419,-7403.322,11446.300,-164,-100,123,28410
4.621491,573,1620,-655,-181,289,123,6397.688,6434.885,-7379.293,11473.592
4.641510,474,1485,-816,-190,429,174,6318.219,6461.355,-7352.701,11519.732
4.661530,455,1310,-677,-150,494,327,6222.292,6469.844,-7321.248,11587.017
4.681519,306,1407,-666,62,497,522,6129.504,6466.821,-7287.189,11659.404
4.701538,174,1352,-747,50,478,472,6044.128,6439.586,-7261.759,11734.672,-190,-105,139
4.721558,75,1271,-762,109,424,527,5961.654,6410.631,-7238.400,11806.925
4.741577,-72,966,-488,121,364,512,5895.263,6375.546,-7225.634,11866.926
4.761566,175,949,-531,106,229,401,5848.232,6354.370,-7220.380,11904.692
4.781586,595,1174,-251,83,109,319,5800.512,6325.340,-7211.356,11948.887
4.801575,679,1680,-294,136,203,329,5769.310,6284.551,-7187.415,11999.832,-170,-99,140
4.821594,896,2213,-671,320,257,202,5772.768,6240.279,-7152.725,12041.927
4.841614,1289,2495,-1358,407,101,23,5802.308,6175.030,-7145.364,12065.713
4.861603,1762,2576,-1232,477,-167,9,5839.690,6125.642,-7164.962,12061.230
4.881684,2227,3207,-984,61,-323,-49,5848.621,6158.056,-7197.413,12021.009
4.901642,1746,2724,-1298,-316,-111,-255,5866.978,6232.454,-7202.634,11970.487,-148,-110,127
4.921631,1054,2343,-1385,-434,14,-375,5852.660,6315.447,-7206.376,11931.683
4.941651,688,2040,-1194,-531,122,-164,5841.817,6390.893,-7207.666,11895.993
4.961640,474,1784,-1096,-374,46,-226,5850.581,6447.943,-7202.626,11863.909
4.981659,514,1575,-908,-264,10,-269,5877.577,6495.998,-7192.096,11830.692
5.001679,605,1609,-788,-185,2,-328,5899.271,6543.050,-7172.836,11805.632,-162,-112,120
5.021698,627,1621,-905,-166,75,-274,5917.140,6579.672,-7166.604,11780.093
5.041687,510,1737,-712,-184,-98,-196,5929.708,6612.109,-7167.993,11754.738
5.061707,577,1565,-625,-191,-15,-142,5950.507,6612.579,-7180.318,11736.427
5.081696,662,1378,-482,38,-212,-66,5989.245,6589.139,-7199.948,11717.865
5.101715,824,1031,-527,154,-301,-101,6038.330,6545.281,-7222.942,11703.093,-174,-107,123,28421
5.121735,765,935,-519,192,-315,-105,6082.978,6533.252,-7235.495,11678.914
5.141724,672,1180,-207,18,-201,-259,6131.733,6568.823,-7216.222,11645.342
5.161743,279,1630,-198,-100,92,-510,6171.786,6625.037,-7168.006,11622.094
5.181763,283,1778,-398,-25,147,-399,6218.806,6661.696,-7127.541,11600.941
5.201752,603,2047,-602,36,20,-368,6237.561,6684.662,-7126.986,11577.980,-179,-93,127
5.221771,662,2363,-907,-181,-14,-100,6210.429,6735.804,-7142.175,11553.540
5.241760,594,3470,-974,-423,85,22,6150.577,6791.847,-7168.379,11536.507
5.261780,362,3594,-1702,-487,186,189,6081.694,6796.337,-7176.721,11565.159
5.281799,775,2714,-1121,118,124,520,6019.879,6734.188,-7202.532,11617.691
5.301819,568,2464,-809,61,41,568,5949.267,6747.627,-7231.191,11628.458,-187,-97,146
5.321808,389,2216,-831,-303,52,206,5917.249,6765.671,-7266.964,11611.999
5.341828,475,2013,-979,-283,-160,80,5932.451,6778.111,-7288.261,11583.606
5.361817,742,1813,-1006,-37,-176,-143,5966.301,6755.588,-7291.964,11577.045
5.381836,962,1849,-814,194,-180,-42,5992.149,6719.394,-7296.826,11581.695
5.401856,847,1774,-655,182,-102,25,5996.376,6696.556,-7288.365,11598.051,-182,-97,144
5.421845,651,1438,-567,121,92,59,5974.069,6699.495,-7264.005,11623.120
5.441864,456,1068,-515,-8,295,82,5920.107,6713.671,-7234.947,11660.614
5.461884,229,650,-343,-69,433,251,5840.323,6731.248,-7201.326,11711.415
5.481873,252,272,-260,-143,502,329,5743.573,6754.804,-7179.626,11758.928
5.501892,-40,180,-154,-233,485,402,5628.393,6802.725,-7159.057,11799.468,-176,-98,145
5.521912,-178,83,-158,-364,610,381,5498.838,6856.844,-7122.710,11851.114
5.541901,-174,559,233,-344,765,435,5338.025,6909.357,-7070.191,11925.355
5.561920,-191,1900,523,-341,1001,691,5138.811,6915.441,-7017.533,12039.890
5.581909,369,3186,-382,76,902,998,5037.636,7026.913,-6875.393,12099.964
5.601929,981,2437,-1779,-5,913,-228,5097.923,6922.120,-6855.394,12146.375,-173,-99,156,28441
5.621948,1857,2659,-1692,833,-716,-43,5257.585,6800.883,-6931.974,12103.263
5.641968,1590,3702,-518,322,-793,-202,5225.899,6875.429,-6961.287,12057.958
5.661957,1300,2766,-713,-929,151,-144,5230.799,6976.683,-6993.457,11978.799
5.681976,1203,2255,-1405,-458,-452,-489,5361.571,7041.593,-7069.448,11837.561
5.701965,375,2110,-1391,-448,-1021,-893,5478.142,7092.328,-7108.909,11729.777,-141,-102,141
5.721985,208,2173,-691,-222,-399,-726,5604.504,7123.275,-7103.223,11654.533
5.742005,569,1833,-397,89,-468,-760,5782.411,7118.299,-7079.920,11584.633
5.761994,928,1489,-567,479,-584,-928,5970.751,7071.751,-7062.374,11528.172
5.782013,1110,1432,-711,535,-736,-668,6112.686,6997.411,-7077.040,11490.093
5.802033,751,1785,-305,595,-638,-243,6204.824,6921.354,-7065.159,11494.085,-168,-101,156
5.822022,328,2156,-173,570,60,-305,6260.623,6862.768,-6998.342,11539.742
5.842041,349,2005,-444,661,54,-59,6314.436,6774.964,-6962.269,11584.040
5.862030,522,2127,-298,635,-146,80,6339.475,6719.730,-6971.242,11597.133
5.882050,772,2889,-361,61,-153,85,6333.484,6723.789,-7011.153,11573.971
5.902069,958,3305,-1426,-251,-184,74,6305.884,6724.953,-7081.248,11545.656,-186,-81,164
5.922089,932,2862,-1290,-222,-384,299,6255.772,6720.070,-7141.965,11538.359
5.942078,435,2578,-828,-401,-13,382,6182.975,6764.707,-7159.818,11540.450
5.962097,-63,2808,-971,-330,216,173,6141.019,6797.327,-7169.828,11537.470
5.982086,156,2205,-1185,-198,-22,103,6167.857,6774.271,-7192.522,11522.580
6.002106,580,1969,-994,152,-301,-79,6219.522,6732.517,-7219.473,11502.408,-183,-86,150
6.022125,731,1822,-765,145,-386,-97,6264.501,6696.039,-7247.087,11481.909
6.042114,577,1830,-753,125,-307,-79,6296.204,6678.464,-7265.306,11463.275
6.062134,366,1796,-702,22,-198,-96,6324.726,6677.804,-7274.569,11442.065
6.082153,326,1723,-663,-21,-156,-139,6352.786,6675.622,-7289.606,11418.198
6.102234,374,1688,-590,-18,-203,-106,6375.336,6668.229,-7310.130,11396.808,-180,-92,167,28441
6.122162,478,1799,-651,3,-219,-38,6389.051,6650.688,-7332.215,11385.185
6.142182,511,1825,-706,40,-161,50,6392.928,6629.100,-7341.923,11389.341
6.162171,425,1819,-797,105,-42,81,6394.351,6605.770,-7334.548,11406.836
6.182190,288,1830,-804,167,44,67,6401.241,6574.449,-7316.796,11432.439
6.202210,246,1784,-781,254,15,94,6411.427,6523.958,-7310.382,11459.726,-192,-80,156
6.222199,303,1741,-763,308,-92,178,6427.392,6455.350,-7320.442,11483.190
6.242188,383,1578,-784,349,-216,210,6449.287,6378.820,-7337.310,11502.898
6.262207,457,1325,-751,353,-272,199,6473.894,6302.395,-7362.421,11515.151
6.282227,398,1096,-600,312,-313,165,6496.340,6239.522,-7391.547,11518.090
6.302216,412,867,-552,213,-303,136,6506.999,6199.377,-7423.218,11513.382,-186,-88,164
6.322235,387,758,-460,49,-242,126,6505.259,6188.400,-7457.472,11498.124
6.342255,382,574,-352,-164,-200,77,6497.106,6184.054,-7492.683,11482.170
6.362274,438,842,-104,-160,-114,31,6467.920,6165.319,-7521.980,11489.565
6.382263,591,1290,-64,119,-84,431,6455.979,6091.637,-7529.755,11530.417
6.402283,714,2369,-550,412,71,168,6487.588,6039.068,-7477.583,11574.197,-185,-89,146
6.422302,910,2584,-1459,627,115,-44,6577.188,5949.252,-7426.691,11602.874
6.442291,1096,2501,-1251,814,-285,-225,6661.651,5869.784,-7406.776,11607.891
6.462311,1722,2719,-635,314,-190,-139,6678.945,5868.667,-7425.756,11586.372
6.482300,1640,2222,-743,-145,-180,-68,6657.233,5909.192,-7456.124,11558.734
6.502319,995,2220,-1169,-431,75,-59,6614.745,5995.350,-7475.027,11526.505,-168,-99,153
6.522339,993,2725,-1483,-617,107,-169,6608.728,6089.540,-7482.363,11475.709
6.542328,720,2314,-1391,-467,53,-432,6629.785,6163.713,-7472.983,11429.985
6.562348,801,2115,-934,-362,66,-360,6635.534,6235.740,-7476.281,11385.336
6.582367,1096,2000,-847,-392,-24,-298,6651.858,6298.376,-7485.693,11335.037
6.602356,966,1825,-837,-321,-74,-344,6673.119,6368.923,-7476.769,11288.917,-180,-89,133,28441
6.622406,805,1663,-818,-312,121,-470,6691.743,6443.436,-7443.734,11257.396
6.642365,955,1455,-830,-186,175,-357,6707.601,6473.507,-7405.971,11255.612
6.662415,899,1509,-594,113,192,-165,6710.131,6497.988,-7345.976,11279.289
6.682404,1049,1372,-631,76,447,-154,6686.519,6539.409,-7270.479,11318.221
6.702393,953,1382,-525,-93,682,-127,6630.165,6621.800,-7184.298,11358.432,-187,-82,151
6.722412,803,1530,-380,-228,792,-74,6560.710,6721.663,-7091.350,11398.444
6.742432,554,1776,-309,-310,923,-115,6485.426,6841.810,-6976.894,11440.597
6.762451,330,1863,-479,-255,1031,-216,6412.749,6949.834,-6865.619,11483.691
6.782532,124,2002,-560,-231,936,-81,6320.723,7037.645,-6781.216,11531.286
6.802460,15,2032,-641,-297,856,142,6215.360,7120.403,-6709.595,11579.548,-196,-85,149
6.822449,84,2230,-650,-329,802,192,6119.237,7201.227,-6647.383,11616.583
6.842468,-246,3565,-737,-332,725,128,6045.125,7281.841,-6587.890,11639.003
6.862457,83,3860,-2153,-258,607,-29,6009.427,7278.826,-6551.093,11680.072
6.882507,806,2505,-1176,470,84,407,5976.035,7216.400,-6545.228,11739.080
6.902496,897,2383,-532,-68,205,353,5883.403,7261.812,-6554.029,11752.948
6.922486,664,2170,-673,-481,349,281,5804.150,7330.559,-6554.386,11749.477,-200,-84,152
6.942505,561,1679,-1099,-415,304,14,5790.407,7388.377,-6540.062,11728.004
6.962525,440,1758,-1041,-221,115,-231,5787.795,7437.671,-6508.039,11715.943
6.982605,396,1669,-886,-176,264,-166,5775.067,7483.697,-6465.989,11716.198
7.002533,424,1695,-739,-153,311,-176,5756.810,7532.791,-6419.973,11719.026
7.022553,286,1634,-736,-147,382,-166,5721.731,7585.413,-6363.498,11733.057,-202,-93,145
7.042572,177,1509,-802,-163,485,-35,5665.811,7641.495,-6308.207,11753.642
7.062561,193,1456,-767,-235,563,15,5598.787,7706.362,-6255.429,11771.601
7.082581,193,1377,-679,-301,534,58,5524.738,7770.060,-6217.790,11784.649
7.102600,179,1376,-684,-360,498,114,5438.833,7834.812,-6188.733,11797.026,-202,-93,145,28421
7.122589,150,1382,-736,-385,502,197,5335.982,7888.101,-6168.054,11819.293,-210,-89,142
7.142609,124,1305,-763,-341,500,356,5234.421,7923.474,-6151.818,11849.471
7.162628,168,1330,-736,-244,466,357,5154.214,7949.339,-6131.735,11877.682
7.182648,123,1384,-701,-149,367,224,5103.160,7969.353,-6105.554,11899.781
7.202637,-24,1392,-709,-63,292,104,5074.497,7978.613,-6083.222,11917.258
7.222656,63,1452,-684,-8,169,64,5062.144,7976.745,-6076.335,11927.272,-194,-80,144
7.242645,338,1372,-533,10,16,58,5060.482,7963.767,-6086.267,11931.584
7.262665,589,1325,-501,65,-97,116,5061.705,7953.743,-6088.914,11936.401
7.282684,1026,1914,-6,58,15,-1,5049.620,7931.826,-6072.982,11964.188
7.302673,1314,2201,-474,375,234,149,5029.164,7879.884,-6008.879,12039.258
7.322754,763,3020,-774,492,483,80,5019.104,7861.397,-5905.856,12106.334,-188,-88,139
7.342682,1105,3858,-1045,419,519,-196,5034.844,7838.239,-5823.202,12154.757
7.362702,1956,4057,-1432,462,322,-45,5011.618,7806.812,-5805.171,12193.145
7.382752,1247,3546,-631,127,41,217,4901.235,7866.342,-5809.008,12197.927
7.402710,904,3329,-767,-987,621,380,4768.576,8008.242,-5818.065,12153.777
7.422730,459,3006,-976,-1022,379,87,4703.955,8118.280,-5815.952,12106.877,-202,-100,154
7.442719,552,2726,-1041,-566,244,-46,4648.826,8187.261,-5794.882,12091.813
7.462738,644,2500,-912,-443,392,88,4549.784,8246.518,-5770.214,12101.011
7.482758,734,2052,-748,-334,494,388,4434.796,8273.192,-5760.736,12129.973
7.502747,937,1656,-760,-260,429,475,4318.573,8281.667,-5765.097,12164.004
7.522766,629,1468,-563,-211,403,556,4197.347,8311.073,-5774.299,12182.005,-196,-104,135
7.542786,585,1320,-477,-372,293,479,4100.798,8349.516,-5801.386,12175.729
7.562805,635,1230,-451,-476,195,332,4009.637,8402.323,-5825.989,12158.004
7.582794,628,1249,-429,-487,193,346,3906.370,8444.187,-5849.782,12151.192
7.602814,500,1245,-349,-429,284,437,3790.975,8466.222,-5865.927,12164.618,-196,-104,135,28415
7.622803,626,1158,-448,-259,334,543,3689.304,8482.316,-5867.296,12183.990,-186,-95,141
7.642822,784,1417,-449,-264,389,277,3606.844,8515.587,-5847.180,12195.137
7.662842,814,1505,-416,-222,372,263,3540.324,8548.065,-5812.028,12208.704
7.682831,876,1587,-498,-128,420,62,3486.953,8565.539,-5764.665,12234.246
7.702850,876,1658,-496,-8,455,69,3440.083,8570.601,-5705.133,12271.817
7.722840,952,1735,-585,84,501,10,3406.564,8570.664,-5632.044,12314.810,-164,-102,148
7.742859,1004,2077,-593,188,499,-59,3373.364,8560.754,-5549.448,12368.223
7.762879,521,3008,-563,262,599,-21,3331.553,8516.725,-5438.997,12458.687
7.782868,745,2607,-1128,788,734,42,3307.724,8386.435,-5355.035,12589.110
7.802887,592,2015,-779,1050,455,510,3184.442,8266.016,-5318.072,12715.575
7.822907,447,2149,-6,402,724,962,3001.234,8260.315,-5326.811,12760.106,-144,-115,137
7.842896,302,2487,-291,-523,456,785,2856.852,8341.552,-5336.681,12736.254
7.862915,381,2434,-560,-576,362,407,2780.055,8392.699,-5326.699,12723.820
7.882904,968,2093,-843,-281,294,125,2736.901,8421.356,-5298.818,12725.883
7.902924,1201,1838,-699,-38,258,44,2697.575,8443.648,-5245.503,12741.586
7.922943,1263,1728,-550,-101,446,-63,2648.842,8494.945,-5179.496,12744.717,-147,-104,119
7.942963,947,1797,-380,-366,529,-142,2613.749,8609.243,-5083.315,12713.953
7.962952,644,1663,-501,-726,629,-513,2593.524,8767.364,-4971.331,12654.179
7.982971,599,1528,-526,-810,559,-619,2589.951,8920.143,-4862.690,12590.190
8.002991,443,1503,-367,-816,541,-710,2576.346,9072.295,-4734.403,12533.026
8.023010,451,1467,-558,-703,733,-617,2549.062,9214.920,-4582.358,12490.995,-129,-133,107
8.042999,331,1728,-517,-682,858,-604,2476.413,9346.634,-4423.760,12464.895
8.063019,326,1787,-389,-625,1128,-255,2335.360,9446.548,-4252.394,12476.434
8.083008,343,1880,-436,-408,1388,26,2159.915,9514.491,-4089.210,12510.916
8.103027,348,1904,-495,-238,1411,223,1962.463,9562.077,-3922.719,12560.379,-129,-133,107,28406
8.123047,297,1963,-534,-170,1529,285,1771.217,9603.613,-3746.879,12610.699,-159,-130,110
8.143036,332,2099,-569,-154,1441,203,1584.236,9627.150,-3579.556,12666.112
8.163056,286,2141,-576,-23,1468,318,1389.741,9621.753,-3416.299,12737.929
8.183045,316,2212,-667,161,1450,385,1199.044,9596.522,-3258.454,12817.448
8.203064,426,2214,-791,230,1409,419,993.303,9559.093,-3108.841,12899.908
8.223084,623,2328,-488,291,1468,543,770.162,9509.113,-2960.345,12986.740,-169,-102,134
8.243073,914,2407,-520,317,1503,631,541.719,9453.505,-2819.511,13069.949
8.263092,1279,2553,-528,419,1430,602,336.858,9413.167,-2658.662,13139.473
8.283112,1212,2048,-463,88,1574,352,145.991,9420.997,-2463.854,13175.293
8.303101,823,2253,-302,-243,1585,133,-57.766,9498.567,-2232.098,13161.575
8.323120,445,2331,-200,-623,1776,120,-276.527,9571.637,-2013.903,13141.040,-162,-117,88
8.343140,345,2215,-373,-531,1672,230,-472.473,9626.996,-1816.523,13123.772
8.363129,250,2017,-568,-402,1497,227,-681.970,9664.194,-1635.658,13111.000
8.383148,378,1925,-567,-344,1530,415,-924.576,9691.410,-1478.429,13094.709
8.403137,392,1851,-489,-374,1500,705,-1204.394,9699.058,-1358.714,13079.260
8.423157,428,1668,-302,-201,1478,998,-1510.998,9679.619,-1267.220,13071.015,-174,-124,66
8.443176,593,1525,-404,-58,1440,1162,-1816.080,9652.753,-1191.632,13059.160
8.463196,749,1434,-403,-131,1353,1175,-2119.311,9632.353,-1127.357,13034.216
8.483185,930,1571,-403,-193,1276,1157,-2404.778,9624.830,-1067.355,12995.225
8.503204,1059,1640,-464,-280,1212,1056,-2657.131,9625.240,-986.170,12952.116
8.523194,955,1695,-516,-319,1196,812,-2885.095,9635.784,-888.502,12902.476,-185,-134,39
8.543274,895,1852,-582,-408,1185,674,-3097.811,9657.173,-779.372,12844.087
8.563233,879,1881,-557,-491,1152,607,-3291.241,9684.217,-667.582,12781.762
8.583222,895,1838,-647,-523,1081,501,-3468.292,9716.399,-557.715,12715.617
8.603241,886,1868,-705,-546,1025,483,-3646.426,9747.893,-453.606,12645.625,-185,-134,39,28415
8.623261,847,1863,-727,-539,1016,511,-3823.351,9774.570,-354.857,12575.741,-163,-146,26
8.643250,786,1850,-777,-492,977,524,-3995.243,9791.407,-271.621,12511.116
8.663269,842,1828,-803,-393,877,570,-4149.150,9805.263,-183.188,12451.636
8.683289,857,1767,-833,-393,881,391,-4287.936,9812.218,-94.243,12400.021
8.703278,868,1782,-819,-364,821,355,-4417.366,9820.081,-9.939,12348.612
8.723297,913,1715,-849,-351,777,334,-4533.926,9819.726,68.152,12306.391,-164,-147,-1
8.743286,1022,1761,-867,-227,715,270,-4639.521,9812.626,137.703,12272.069
8.763306,1123,1728,-875,-182,647,253,-4737.507,9800.944,194.501,12243.166
8.783325,1187,1669,-821,-164,588,243,-4829.475,9789.477,252.623,12215.315
8.803314,1270,1668,-880,-132,578,205,-4916.315,9773.894,312.123,12191.753
8.823334,1311,1641,-889,-112,587,159,-4997.954,9752.311,378.200,12173.959,-154,-139,-20
8.843323,1299,1698,-884,-90,622,104,-5076.052,9726.234,455.706,12159.845
8.863342,1306,1982,-760,-58,656,35,-5140.541,9690.758,549.050,12157.221
8.883362,1350,1948,-824,17,702,-128,-5193.050,9634.292,649.358,12174.827
8.903382,1381,1673,-827,194,694,-174,-5266.248,9584.651,755.483,12176.443
8.923371,991,1720,-619,-147,881,-48,-5369.145,9577.571,904.026,12126.854,-164,-143,-14
8.943390,477,1764,-560,-482,1060,14,-5477.072,9586.153,1090.770,12056.243
8.963410,151,1640,-462,-625,1182,-37,-5576.183,9592.675,1260.115,11988.925
8.983399,23,1749,-535,-470,975,-14,-5647.878,9597.787,1408.743,11934.606
9.003418,325,1926,-715,-441,809,-103,-5699.880,9598.944,1547.950,11891.632
9.023407,726,1972,-721,-385,775,-187,-5744.793,9595.971,1713.766,11849.605,-181,-150,-26
9.043427,926,2019,-800,-465,947,-345,-5796.509,9596.330,1903.375,11795.063
9.063446,838,1942,-773,-551,979,-250,-5874.116,9597.846,2080.077,11725.392
9.083435,589,1843,-522,-567,1073,-94,-5966.937,9596.573,2270.029,11644.047
9.103455,527,1852,-615,-612,1176,-110,-6047.430,9596.389,2475.214,11560.564,-181,-150,-26,28429
9.123444,528,1747,-631,-653,1194,-254,-6117.005,9586.017,2705.054,11480.795,-194,-139,-29
9.143463,514,1665,-494,-668,1293,-372,-6190.351,9563.632,2956.177,11397.936
9.163483,459,1731,-498,-641,1403,-363,-6282.443,9534.449,3200.750,11305.566
9.183502,415,1855,-537,-582,1477,-238,-6398.648,9495.389,3431.768,11205.056
9.203491,319,1974,-691,-519,1542,-110,-6533.652,9447.264,3646.913,11099.371
9.223511,242,1948,-735,-484,1521,45,-6678.285,9392.106,3845.209,10992.664,-208,-118,-20
9.243530,253,1920,-770,-406,1498,101,-6820.903,9332.216,4036.011,10887.198
9.263519,271,1925,-758,-376,1468,82,-6958.894,9269.318,4217.527,10784.314
9.283539,258,1975,-790,-328,1413,95,-7093.067,9203.721,4386.945,10685.039
9.303528,243,1897,-806,-271,1348,106,-7222.737,9134.693,4544.027,10591.350
9.323548,224,1899,-761,-218,1285,116,-7347.012,9066.016,4691.181,10500.333,-242,-107,-14
9.343567,270,2005,-752,-215,1232,113,-7466.158,8998.649,4827.273,10412.188
9.363556,184,2060,-777,-160,1159,129,-7583.361,8924.795,4955.456,10330.515
9.383576,248,2089,-838,-101,1164,98,-7698.980,8845.489,5077.391,10253.709
9.403595,389,2048,-795,-68,1141,85,-7815.567,8763.111,5193.006,10178.061
9.423584,415,2359,-714,-4,1112,120,-7940.473,8670.250,5292.952,10109.191,-256,-102,-14
9.443604,608,2559,-793,160,1094,184,-8087.475,8556.648,5357.663,10055.217
9.463593,635,2313,-1049,467,1046,269,-8230.967,8431.388,5412.350,10015.226
9.483612,379,2037,-575,373,1100,149,-8356.627,8316.608,5526.478,9944.560
9.503632,699,1804,-57,-46,1273,49,-8460.167,8237.563,5671.575,9840.569
9.523651,665,1996,124,-402,1220,98,-8537.648,8195.363,5836.937,9711.343,-297,-98,-5
9.543640,672,2189,-370,-604,1146,59,-8604.137,8165.887,5998.763,9577.964
9.563660,286,2178,-647,-589,1097,113,-8700.327,8118.418,6150.249,9434.270
9.583679,5,2186,-751,-490,1281,287,-8830.920,8075.117,6281.519,9262.035
9.603668,-61,2065,-698,-456,1313,605,-8985.698,8049.295,6367.322,9075.171,-297,-98,-5,28415
9.623688,-85,1904,-546,-329,1076,969,-9161.366,8044.412,6387.498,8887.751,-315,-107,-23
9.643707,98,1788,-663,-102,953,1173,-9346.095,8048.614,6361.896,8708.159
9.663696,495,1654,-691,-18,764,1234,-9523.467,8058.289,6313.231,8540.849
9.683716,870,1561,-1025,141,612,1367,-9699.524,8072.435,6236.975,8383.949
9.703736,529,1174,-724,-219,654,641,-9800.489,8045.093,6250.823,8281.880
9.723725,711,1502,-694,-61,596,560,-9905.308,8033.753,6267.462,8154.632,-328,-104,-4
9.743744,583,1500,-672,-179,659,650,-10013.365,8009.052,6275.166,8040.231
9.763825,575,1714,-908,-50,678,610,-10116.622,7985.947,6283.239,7926.849
9.783753,550,1821,-923,-76,552,603,-10208.171,7978.733,6276.259,7821.576
9.803772,534,1838,-864,-107,469,618,-10282.577,7979.203,6269.902,7728.175
9.823761,558,1840,-952,-84,351,504,-10335.157,7978.404,6275.829,7653.691,-300,-92,-18
9.843781,715,1916,-1056,-156,287,341,-10365.629,7980.657,6281.237,7605.546
9.863800,785,1914,-1052,-84,131,182,-10381.435,7974.971,6274.899,7595.176
9.883789,742,2010,-1062,83,30,24,-10394.354,7959.465,6250.888,7613.551
9.903809,852,1999,-1025,228,-51,-14,-10405.133,7950.161,6199.964,7650.099
9.923798,972,1862,-1061,352,-230,25,-10412.691,7957.377,6123.222,7693.997,-290,-91,-21
9.943817,1000,1869,-970,359,-328,107,-10423.058,7971.652,6049.627,7723.346
9.963837,899,2546,-618,270,-229,147,-10437.680,7967.007,6008.200,7740.710
9.983826,783,2186,-927,261,-30,-41,-10452.424,7922.100,5928.005,7828.239
10.003845,732,1764,-790,906,-317,-160,-10459.473,7899.947,5831.555,7913.195
10.023865,528,2029,-366,455,-346,-30,-10451.207,7923.057,5780.117,7938.709,-285,-100,-33
10.043854,163,2000,-218,79,-274,127,-10431.856,7968.083,5750.753,7940.421
10.063873,69,2393,-657,-121,-330,98,-10382.802,8035.491,5740.126,7944.476
10.083893,91,2283,-819,-176,-504,-27,-10312.299,8086.198,5718.008,8000.606
10.103913,280,2154,-839,12,-586,-278,-10227.405,8119.505,5695.535,8091.362,-285,-100,-33,28435
10.123902,572,1890,-729,85,-648,-471,-10127.419,8149.674,5671.395,8202.981,-281,-106,-31
10.143891,569,1772,-554,96,-693,-597,-10010.317,8174.323,5660.499,8328.756
10.163910,545,1610,-477,84,-743,-702,-9887.820,8211.291,5647.828,8446.489
10.183930,323,1506,-610,-19,-733,-647,-9751.151,8247.853,5661.689,8559.713
10.203919,353,1558,-531,-151,-687,-800,-9600.505,8287.908,5697.892,8666.622
10.223938,354,1665,-616,-277,-667,-829,-9456.973,8330.576,5736.518,8757.565,-285,-107,-37
10.243958,197,1744,-695,-274,-605,-719,-9337.722,8362.534,5767.444,8834.422
10.263977,147,1793,-754,-188,-457,-598,-9246.090,8382.733,5791.258,8895.863
10.283966,49,1834,-770,-124,-371,-431,-9181.274,8405.060,5795.498,8939.060
10.303986,43,1851,-779,-79,-335,-238,-9130.807,8425.436,5787.224,8976.851
10.323975,77,1820,-732,-1,-330,-162,-9093.209,8440.191,5761.940,9017.328,-281,-106,-31
10.343994,110,1819,-730,99,-319,-113,-9068.055,8447.195,5722.549,9061.077
10.364014,103,1915,-764,219,-317,-52,-9059.439,8445.317,5660.035,9110.577
10.384003,37,1855,-744,394,-323,56,-9075.310,8431.081,5565.947,9165.766
10.404022,101,1732,-749,592,-327,169,-9093.366,8410.825,5453.714,9233.696
10.424042,480,1585,-733,652,-413,105,-9082.923,8390.283,5358.178,9318.209,-280,-84,-30
10.444031,794,2903,-344,531,-434,-180,-9054.997,8360.189,5313.632,9397.606
10.464050,1028,2688,-564,393,-120,-227,-9075.297,8269.573,5249.655,9493.666
10.484070,1063,2365,-1315,1064,-167,-317,-9041.660,8180.015,5182.731,9639.007
10.504059,1,2627,-383,614,-152,-752,-8986.330,8080.624,5296.178,9712.636
10.524079,126,3220,-119,-226,619,-895,-8931.563,8066.369,5400.302,9717.666,-288,-94,-36
10.544098,454,2856,-669,-245,-126,-246,-8872.316,8123.989,5374.621,9738.156
10.564087,387,2556,-781,-179,-561,-5,-8816.505,8190.734,5344.559,9749.474
10.584107,53,2373,-890,-255,-404,-4,-8781.257,8237.357,5331.772,9749.005
10.604126,-85,2138,-842,-101,-252,34,-8767.497,8266.868,5292.333,9757.896,-288,-94,-36,28415
10.624115,-74,1872,-706,95,-361,185,-8783.914,8311.847,5168.448,9771.316,-287,-114,-39
10.644104,-150,1592,-631,445,-623,685,-8837.536,8363.155,4967.696,9783.303
10.664124,-272,1427,-539,657,-822,919,-8817.399,8422.971,4798.991,9834.234
10.684143,101,1337,-536,310,-878,-53,-8742.355,8473.629,4672.846,9918.103
10.704132,210,1183,-452,275,-978,-59,-8658.759,8529.377,4534.225,10007.590
10.724152,198,1210,-412,361,-1122,-110,-8547.635,8596.474,4400.160,10105.077,-299,-114,-33
10.744202,394,1206,-400,238,-1189,-231,-8403.982,8672.944,4264.505,10217.757
10.764191,601,1463,-508,241,-1383,-350,-8233.051,8768.397,4117.807,10334.949
10.784180,567,1575,-584,194,-1553,-396,-8055.240,8860.028,3961.129,10457.433
10.804199,552,1648,-670,257,-1535,-405,-7868.583,8936.949,3806.479,10590.679
10.824188,584,1636,-699,329,-1560,-511,-7674.122,9002.158,3648.760,10732.706,-258,-118,-57
10.844208,767,1795,-720,388,-1553,-550,-7477.664,9057.522,3490.488,10876.476
10.864227,859,1926,-630,412,-1531,-550,-7285.407,9110.148,3329.782,11012.540
10.884247,876,1845,-909,410,-1509,-495,-7111.907,9165.795,3154.042,11130.877
10.904236,956,1886,-952,380,-1526,-281,-6944.070,9244.179,2959.240,11225.123
10.924256,437,2900,-541,207,-1628,-139,-6795.105,9323.286,2770.709,11298.738,-241,-120,-57
10.944275,55,2534,-1215,344,-1386,-54,-6645.734,9340.753,2565.887,11420.867
10.964264,72,3337,-1221,730,-1576,-209,-6472.346,9387.990,2346.660,11528.356
10.984345,19,2442,-653,341,-1516,-102,-6316.287,9444.624,2151.192,11606.524
11.004273,337,2566,-206,138,-1594,-92,-6133.283,9560.962,1966.760,11642.085
11.024292,297,2487,-353,-143,-1618,-148,-5944.775,9679.692,1810.910,11667.015,-228,-131,-44
11.044312,397,2524,-634,-147,-1519,-247,-5744.587,9793.240,1676.303,11692.631
11.064301,115,2567,-731,-198,-1460,-349,-5533.081,9892.487,1557.668,11727.439
11.084320,-108,2421,-659,-135,-1429,-550,-5294.928,9974.355,1452.966,11781.353
11.104309,40,2280,-621,-33,-1476,-661,-5043.802,10045.380,1341.514,11844.246,-228,-131,-44,28406
11.124329,64,2191,-424,58,-1565,-731,-4773.961,10106.768,1225.832,11916.178,-214,-136,-30
11.144348,128,1978,-452,68,-1612,-783,-4507.755,10162.888,1098.357,11984.360
11.164368,144,1770,-496,118,-1557,-700,-4264.042,10209.922,978.746,12043.792
11.184357,113,1690,-495,83,-1417,-634,-4034.932,10258.064,870.492,12090.043
11.204376,53,1654,-511,16,-1342,-621,-3808.654,10307.883,769.057,12127.889
11.224365,14,1673,-484,-11,-1316,-607,-3588.683,10356.611,666.077,12159.512,-200,-138,-1
11.244385,59,1783,-498,-19,-1294,-563,-3379.020,10397.894,564.249,12189.466
11.264374,175,1915,-504,32,-1235,-528,-3176.759,10425.169,462.758,12224.784
11.284393,220,1799,-604,106,-1193,-509,-2990.654,10434.651,359.488,12267.039
11.304413,212,1855,-614,239,-1104,-418,-2826.381,10422.722,259.190,12318.550
11.324402,217,1917,-627,341,-978,-365,-2688.886,10394.795,158.814,12374.503,-190,-131,18
11.344422,143,1976,-653,440,-896,-210,-2570.584,10352.146,50.075,12436.161
11.364441,129,1971,-670,522,-850,-146,-2470.025,10298.888,-60.594,12500.545
11.384430,136,2070,-668,563,-768,-50,-2392.007,10237.646,-167.522,12564.883
11.404450,181,2286,-563,594,-655,33,-2335.080,10165.352,-269.977,12632.322
11.424469,277,2637,-412,679,-556,107,-2300.856,10061.821,-373.495,12718.559,-192,-123,39
11.444458,581,2424,-923,1042,-489,177,-2242.203,9919.820,-476.871,12836.577
11.464478,504,1867,-1004,1101,-548,-68,-2161.213,9816.168,-531.494,12927.681
11.484497,222,2241,-472,542,-301,-305,-2095.351,9803.661,-544.515,12947.458
11.504486,346,2368,-208,22,-344,-224,-2021.917,9810.905,-592.973,12951.518
11.524536,302,2376,-592,135,-552,-121,-1945.314,9786.713,-677.723,12977.369,-196,-115,42
11.544525,76,2258,-809,372,-629,-41,-1889.401,9739.655,-778.046,13015.351
11.564514,-43,2163,-706,429,-577,149,-1855.524,9688.055,-881.382,13052.096
11.584534,-133,2014,-614,449,-540,246,-1821.842,9633.264,-994.922,13089.182
11.604553,21,2035,-475,475,-642,228,-1753.113,9578.119,-1119.228,13128.937,-196,-115,42,28447
11.624542,166,2078,-435,554,-828,67,-1651.422,9507.853,-1268.725,13179.503,-188,-129,40
11.644562,262,1996,-506,658,-1056,53,-1532.058,9425.862,-1441.532,13234.929
11.664581,304,2068,-557,791,-1150,43,-1401.894,9341.213,-1633.081,13287.020
11.684570,417,2058,-491,696,-1313,42,-1244.779,9257.922,-1842.651,13333.472
11.704590,424,1992,-406,744,-1488,-78,-1051.866,9178.346,-2052.526,13374.383
11.724579,545,2062,-439,775,-1508,-238,-852.038,9096.703,-2250.856,13412.423,-176,-143,47
11.744599,601,2164,-538,693,-1509,-243,-649.521,9021.042,-2451.425,13439.675
11.764618,591,2069,-614,671,-1552,-263,-440.354,8935.598,-2655.519,13466.433
11.784638,647,2058,-660,742,-1580,-263,-227.171,8852.274,-2863.152,13484.192
11.804627,752,1864,-665,704,-1617,-236,-23.048,8756.880,-3069.328,13503.006
11.824646,908,1814,-858,728,-1529,-234,161.984,8671.024,-3259.880,13512.798,-167,-150,47
11.844666,830,1758,-642,580,-1412,-214,325.587,8580.239,-3427.878,13526.218
11.864655,919,1692,-843,637,-1245,-164,485.054,8488.240,-3585.580,13538.595
11.884674,860,1776,-880,669,-1214,-200,652.200,8394.395,-3747.899,13546.123
11.904663,840,1507,-913,600,-1297,-204,834.000,8298.605,-3899.101,13552.492
11.924683,792,1573,-845,665,-1251,-303,995.344,8210.019,-4032.283,13556.585,-153,-150,63
11.944702,764,1548,-866,581,-1096,-248,1151.511,8137.038,-4150.762,13552.462
11.964691,635,1571,-888,465,-1019,-316,1309.607,8076.821,-4257.622,13540.974
11.984711,681,1552,-806,387,-968,-382,1472.813,8025.148,-4357.701,13523.080
12.004730,871,1472,-805,374,-1003,-427,1628.926,7980.850,-4452.355,13500.541
12.024719,728,1583,-951,325,-917,-424,1754.829,7954.878,-4537.305,13471.777,-136,-147,77
12.044739,719,1547,-984,144,-823,-302,1871.317,7937.785,-4617.692,13438.828
12.064728,713,1484,-952,92,-740,-317,1983.925,7925.392,-4693.573,13403.656
12.084747,717,1415,-804,54,-741,-332,2098.213,7922.121,-4775.031,13359.342
12.104767,684,1409,-861,-25,-801,-335,2204.912,7932.483,-4865.900,13303.102,-136,-147,77,28394
12.124756,684,1478,-857,-141,-805,-310,2301.262,7958.196,-4956.277,13237.902,-129,-162,93
12.144776,659,1560,-972,-248,-769,-284,2389.262,7994.274,-5045.676,13166.609
12.164795,691,1576,-1040,-308,-756,-293,2483.405,8033.572,-5132.887,13091.346
12.184784,766,1582,-907,-320,-775,-337,2580.314,8075.100,-5220.374,13012.220
12.204865,861,1635,-931,-360,-792,-353,2678.222,8121.478,-5307.583,12928.020
12.224823,907,1696,-954,-367,-770,-373,2774.215,8169.652,-5387.819,12843.961,-133,-158,99
12.244812,765,1731,-890,-392,-739,-380,2860.601,8226.154,-5466.198,12755.526
12.264832,792,1750,-888,-469,-702,-354,2933.388,8292.767,-5546.151,12660.998
12.284851,747,1929,-841,-545,-667,-300,2997.171,8362.554,-5632.415,12561.687
12.304840,636,2059,-746,-586,-690,-283,3054.248,8436.955,-5719.429,12458.448
12.324860,664,2165,-737,-669,-684,-204,3092.785,8512.990,-5821.903,12349.274,-136,-136,113
12.344849,674,2362,-646,-710,-713,-82,3120.699,8579.734,-5936.039,12241.253
12.364868,818,2365,-564,-679,-737,-32,3162.673,8636.885,-6057.072,12130.499
12.384888,743,2412,-459,-632,-840,-27,3202.189,8687.886,-6189.079,12016.545
12.404907,817,2423,-273,-630,-897,14,3249.718,8737.079,-6333.222,11892.371
12.424896,811,2376,-231,-662,-1003,-12,3300.563,8784.929,-6489.355,11758.189,-150,-129,139
12.444885,759,2319,-173,-678,-1056,30,3347.798,8829.941,-6652.803,11618.951
12.464905,508,2311,-160,-695,-1112,85,3386.454,8868.562,-6829.570,11474.882
12.484924,452,2092,4,-736,-1146,152,3427.416,8895.531,-7019.538,11326.247
12.504944,265,2028,15,-696,-1235,226,3468.069,8911.506,-7220.111,11174.210
12.524933,250,1908,133,-637,-1322,283,3529.919,8901.602,-7432.929,11022.166,-140,-127,178
12.544953,194,1858,195,-492,-1475,286,3611.793,8870.632,-7659.105,10864.639
12.564972,168,1898,197,-399,-1622,294,3713.273,8822.331,-7893.701,10700.607
12.584961,253,1850,334,-297,-1758,278,3842.931,8761.070,-8130.411,10526.508
12.604981,303,1777,579,-217,-1888,177,3989.629,8687.100,-8369.653,10344.152,-140,-127,178,28415
12.624970,331,1828,460,-140,-1963,192,4138.156,8602.287,-8607.994,10159.439,-144,-120,224
12.644989,283,1988,662,-128,-1999,208,4297.314,8522.827,-8831.381,9966.778
12.665009,251,1887,517,-180,-1929,37,4456.055,8456.609,-9024.354,9778.844
12.685028,564,1775,630,-68,-1728,-88,4606.731,8386.212,-9187.574,9616.309
12.705017,602,1791,696,2,-1672,89,4737.495,8280.058,-9376.603,9461.053
12.725037,817,1714,507,23,-1588,254,4850.486,8141.248,-9578.657,9320.817,-159,-137,281
12.745056,690,1628,380,76,-1699,580,4936.717,7998.279,-9780.470,9188.808
12.765045,474,1668,469,85,-1567,523,5031.896,7857.415,-9966.946,9057.399
12.785065,567,1575,571,66,-1493,371,5128.882,7771.831,-10112.011,8914.923
12.805054,589,1482,925,-106,-1278,36,5210.020,7723.631,-10227.537,8776.909
12.825073,607,1349,884,-154,-1118,-46,5280.258,7678.007,-10340.732,8641.283,-181,-145,314
12.845093,685,1230,743,-175,-1113,38,5351.493,7607.312,-10473.126,8499.376
12.865082,741,1230,638,-108,-1317,205,5425.930,7493.228,-10629.373,8358.389
12.885101,739,1525,337,-50,-1385,392,5485.006,7366.742,-10783.847,8233.463
12.905090,614,1734,348,-38,-1216,438,5533.240,7256.704,-10903.602,8140.662
12.925110,614,1830,542,64,-950,345,5607.090,7149.401,-10996.383,8059.876,-195,-143,337
12.945130,805,1791,410,312,-959,249,5720.769,7039.708,-11067.320,7979.046
12.965149,504,1803,516,405,-965,17,5849.536,6965.568,-11087.191,7922.967
12.985138,733,1635,681,593,-678,-179,6011.647,6891.422,-11081.099,7874.838
13.005158,718,1858,474,769,-756,-329,6192.977,6813.426,-11066.767,7822.170
13.025147,702,2150,320,870,-782,-342,6411.847,6704.183,-11040.971,7776.537,-200,-162,360
13.045166,883,2629,-440,1185,-888,-330,6646.719,6580.880,-10988.459,7759.017
13.065186,883,2880,-229,1373,-651,-388,6859.797,6522.264,-10857.644,7807.064
13.085175,459,3058,0,1294,126,-589,6985.259,6508.817,-10711.275,7908.569
13.105194,529,2965,215,968,493,-337,7088.962,6509.888,-10589.026,7979.719,-200,-162,360,28406
13.125214,211,2839,144,667,295,-383,7146.226,6539.047,-10515.969,8001.384,-219,-166,360
13.145203,496,2542,-408,233,178,-338,7201.321,6565.335,-10464.795,7997.552
13.165222,173,2303,-223,276,41,-356,7282.450,6563.555,-10402.028,8007.429
13.185242,263,2221,-308,561,36,-278,7370.843,6528.728,-10330.913,8046.989
13.205231,198,1954,-291,725,42,-139,7468.452,6463.846,-10252.424,8109.510
13.225250,319,1804,-305,923,72,-10,7569.328,6388.189,-10161.152,8190.404,-228,-140,328
13.245239,370,1726,-227,1028,169,48,7663.146,6295.476,-10065.179,8292.814
13.265259,484,1736,-87,1054,159,142,7746.592,6199.509,-9987.117,8381.487
13.285278,484,1773,-226,894,85,184,7841.033,6099.778,-9917.953,8448.701
13.305298,477,1828,-371,960,-72,75,7931.621,5995.000,-9855.355,8512.154
13.325318,453,1810,-276,896,-88,170,8018.010,5883.984,-9793.264,8580.072,-240,-136,314
13.345307,511,1759,-193,918,-63,201,8096.747,5776.517,-9732.381,8648.163
13.365326,541,1946,-429,843,-47,208,8152.214,5680.159,-9686.226,8711.467
13.385315,353,1952,-675,714,-20,258,8204.393,5589.326,-9633.996,8778.890
13.405335,682,2027,-492,716,48,219,8243.565,5515.285,-9580.318,8847.497
13.425415,523,2002,-627,578,113,228,8263.232,5450.115,-9533.991,8919.288,-223,-121,273
13.445343,521,2128,-732,509,172,319,8259.514,5394.018,-9496.435,8996.563
13.465363,590,2037,-738,412,223,337,8254.140,5340.579,-9456.968,9074.611
13.485382,524,2004,-891,343,285,358,8236.633,5302.298,-9415.055,9156.182
13.505371,481,1888,-674,348,328,349,8228.814,5261.867,-9369.162,9233.288
13.525391,523,1715,-851,358,248,250,8247.575,5217.257,-9321.894,9289.535,-223,-100,239
13.545380,653,1671,-814,506,154,142,8272.007,5168.542,-9270.382,9346.417
13.565399,659,1645,-731,501,163,137,8300.341,5122.789,-9210.269,9405.729
13.585419,678,1678,-652,468,220,98,8319.767,5093.410,-9150.874,9462.324
13.605408,654,1887,-702,393,270,74,8332.606,5076.271,-9090.284,9518.473,-223,-100,239,28400
13.625427,586,2043,-577,322,315,74,8341.300,5068.994,-9023.179,9578.396,-208,-111,222
13.645416,403,2023,-484,363,389,60,8365.402,5046.204,-8944.760,9642.747
13.665436,400,2094,-536,569,311,26,8406.548,5007.830,-8872.514,9693.581
13.685455,391,1988,-615,581,149,14,8462.342,4949.885,-8807.333,9734.152
13.705475,440,1952,-718,664,7,7,8521.194,4878.666,-8764.020,9757.830
13.725464,673,1907,-644,555,-156,30,8579.035,4805.164,-8745.872,9759.902,-208,-113,194
13.745484,588,1871,-667,406,-300,3,8627.358,4738.829,-8748.187,9747.659
13.765473,733,1814,-553,276,-341,16,8666.358,4679.350,-8763.233,9728.263
13.785492,888,1675,-509,162,-358,29,8693.828,4624.940,-8785.395,9709.765
13.805481,771,1701,-507,263,-337,47,8726.185,4572.695,-8796.473,9695.445
13.825501,839,1695,-424,206,-286,5,8760.452,4521.871,-8804.102,9681.446,-207,-105,173
13.845520,759,1795,-477,241,-254,7,8791.910,4484.434,-8808.321,9666.493
13.865540,716,1746,-520,130,-210,-39,8816.434,4460.830,-8818.210,9646.039
13.885529,703,1677,-527,57,-197,-73,8832.961,4443.160,-8841.166,9618.022
13.905548,684,1762,-687,-48,-249,-17,8829.048,4433.173,-8878.524,9591.774
13.925537,687,1862,-806,-185,-181,-12,8818.660,4439.753,-8911.079,9568.068,-202,-110,168
13.945557,722,2005,-895,-210,-127,-5,8802.345,4450.340,-8936.248,9554.690
13.965576,676,2037,-920,-166,-50,35,8787.500,4457.355,-8945.032,9556.864
13.985596,665,2004,-849,-62,43,57,8780.990,4456.253,-8937.348,9570.540
14.005585,732,1946,-852,43,79,56,8776.013,4450.759,-8926.870,9587.427
14.025604,752,1868,-804,60,58,86,8767.629,4442.146,-8922.039,9603.576,-205,-105,170
14.045624,697,1861,-805,-1,49,101,8750.694,4442.159,-8924.501,9616.719
14.065613,709,1883,-736,-67,58,86,8734.501,4449.270,-8925.760,9626.979
14.085632,718,1938,-744,-69,78,53,8717.671,4463.612,-8924.087,9637.140
14.105621,736,1985,-716,-76,116,31,8704.424,4480.621,-8913.069,9651.408,-205,-105,170,28404
14.125641,615,2035,-646,-33,167,12,8694.331,4495.106,-8893.732,9671.587,-195,-112,166
14.145661,699,2045,-747,29,190,38,8683.430,4502.574,-8868.266,9701.245
14.165650,724,1971,-714,75,233,91,8674.544,4502.676,-8836.282,9738.262
14.185669,718,1871,-708,138,242,93,8666.789,4502.631,-8797.194,9780.485
14.205689,702,1806,-677,158,297,87,8657.122,4507.534,-8754.215,9825.250
14.225678,653,1730,-701,136,309,93,8643.688,4513.521,-8713.292,9870.601,-202,-110,170
14.245697,632,1664,-697,131,317,97,8627.306,4520.615,-8673.970,9916.214
14.265686,564,1624,-740,91,315,118,8604.597,4530.573,-8640.905,9960.170
14.285706,519,1586,-803,38,304,139,8577.255,4542.255,-8617.461,9998.670
14.305725,518,1585,-843,-31,254,140,8545.071,4561.050,-8605.061,10028.306
14.325714,547,1631,-851,-135,222,122,8509.764,4587.821,-8602.800,10048.038,-199,-111,156
14.345734,453,1713,-813,-198,189,88,8470.419,4623.804,-8607.705,10060.581
14.365753,449,1693,-795,-270,166,79,8438.054,4656.770,-8623.455,10059.085
14.385742,488,1633,-765,-272,31,29,8411.214,4681.291,-8651.516,10046.079
14.405762,524,1697,-806,-311,-58,46,8376.907,4706.793,-8694.579,10025.629
14.425751,586,1782,-743,-408,-108,56,8340.150,4744.052,-8747.322,9992.780,-192,-101,160
14.445770,688,1892,-811,-517,-140,-6,8301.338,4783.929,-8811.448,9949.654
14.465790,743,1988,-676,-542,-194,-2,8264.042,4824.439,-8875.079,9904.483
14.485809,695,2065,-648,-521,-187,-20,8229.160,4862.594,-8935.641,9860.317
14.505798,726,2052,-624,-465,-188,-22,8203.532,4891.453,-8991.649,9816.384
14.525818,719,2066,-589,-406,-209,-29,8181.727,4917.601,-9042.061,9775.127,-179,-114,159
14.545838,688,2116,-580,-352,-186,-31,8165.509,4938.528,-9085.368,9737.911
14.565827,749,2120,-573,-284,-178,-49,8160.439,4952.081,-9118.549,9704.206
14.585846,784,2180,-510,-176,-175,-62,8165.894,4956.076,-9139.577,9677.760
14.605866,713,2084,-568,-69,-149,-75,8183.217,4946.960,-9149.190,9658.690,-179,-114,159,28414
14.625855,716,2068,-468,67,-146,-57,8208.453,4932.798,-9149.232,9644.470,-196,-113,176
14.645935,709,2029,-477,88,-132,-92,8239.833,4917.301,-9145.938,9628.735
14.665863,741,1960,-473,150,-137,-102,8274.360,4896.164,-9138.994,9616.484
14.685883,703,1899,-508,187,-128,-89,8307.384,4874.613,-9130.019,9607.481
14.705902,764,1886,-421,176,-107,-80,8337.619,4859.205,-9119.453,9599.127
14.725891,778,1898,-470,167,-82,-102,8364.932,4845.105,-9109.702,9591.748,-183,-105,193
14.745911,777,1896,-499,156,-75,-81,8391.413,4830.813,-9097.128,9587.759
14.765930,721,1941,-499,165,-46,-79,8416.367,4818.291,-9080.928,9587.544
14.785950,718,1948,-491,172,-14,-70,8439.205,4806.036,-9062.835,9590.739
14.805939,652,1939,-455,157,6,-53,8458.428,4794.643,-9042.889,9598.332
14.825958,690,1901,-503,168,33,-36,8476.264,4783.865,-9022.979,9606.709,-190,-107,196
14.845947,672,1928,-536,168,29,-36,8493.003,4775.509,-9002.137,9615.631
14.865967,694,1911,-539,150,59,-40,8505.709,4772.367,-8978.757,9627.812
14.885986,661,1955,-601,134,100,-29,8514.358,4771.810,-8952.625,9644.763
14.905975,625,1937,-617,136,132,-19,8521.408,4772.975,-8923.187,9665.219
14.925995,570,1940,-662,125,160,-9,8526.022,4775.484,-8893.586,9687.170,-205,-114,189
14.946015,546,1953,-727,120,166,-3,8527.612,4778.950,-8864.014,9711.136
14.966004,537,1959,-769,114,189,18,8526.197,4783.012,-8833.640,9738.017
14.986023,529,1880,-836,112,199,34,8523.785,4784.966,-8802.600,9767.233
15.006012,515,1836,-822,120,196,49,8522.529,4784.485,-8772.793,9795.343
15.026032,535,1781,-795,129,172,42,8525.689,4781.245,-8743.502,9820.332,-192,-106,181
15.046051,578,1779,-783,144,146,22,8530.381,4779.772,-8715.565,9841.785
15.066040,556,1776,-737,117,146,4,8531.430,4783.303,-8690.059,9861.694
15.086060,577,1778,-729,68,155,7,8526.130,4792.153,-8671.301,9878.479
15.106049,576,1875,-697,6,139,18,8512.981,4808.627,-8662.240,9889.756,-192,-106,181,28414
15.126068,559,1886,-756,-94,122,14,8497.904,4826.041,-8659.493,9896.644,-205,-114,161
15.146088,594,1871,-749,-97,94,4,8484.868,4843.097,-8660.078,9898.985
15.166077,636,1871,-728,-103,50,21,8472.192,4855.317,-8663.619,9900.757
15.186096,569,1899,-715,-117,51,34,8455.010,4867.842,-8668.295,9905.201
15.206116,599,1936,-748,-104,58,45,8441.656,4876.560,-8673.827,9907.460
15.226135,633,1914,-732,-69,7,39,8434.282,4875.672,-8680.037,9908.738,-199,-108,174
15.246124,644,1923,-708,-40,-12,50,8425.924,4874.049,-8686.228,9911.222
15.266144,622,1913,-685,-42,-4,57,8416.738,4872.457,-8692.624,9914.202
15.286133,598,1925,-697,-45,-9,61,8406.923,4870.486,-8701.101,9916.062
15.306152,567,1958,-641,-58,-18,65,8395.839,4867.993,-8712.724,9916.471
15.326142,638,1963,-590,-60,-41,68,8388.614,4862.967,-8723.384,9915.680,-209,-110,161
15.346192,685,1995,-590,-42,-39,65,8379.747,4855.426,-8733.666,9917.821
15.366181,625,1939,-527,-47,-38,83,8365.957,4853.000,-8744.113,9921.445
15.386170,743,1868,-551,-89,-9,74,8355.654,4852.194,-8757.020,9919.137
15.406189,719,1793,-550,-105,-48,53,8341.447,4852.108,-8767.449,9921.924
15.426209,674,1950,-864,-2,3,86,8329.235,4849.333,-8768.485,9932.619,-203,-108,167
15.446228,341,1732,-364,32,47,92,8338.367,4839.664,-8753.578,9942.815
15.466217,602,1836,-635,-71,37,-41,8339.730,4857.530,-8765.436,9922.492
15.486237,801,2121,-826,-144,-115,-83,8340.361,4856.035,-8780.844,9909.062
15.506226,670,1988,-789,-8,-67,31,8341.718,4840.394,-8779.749,9916.539
15.526245,665,1799,-784,140,-18,47,8354.500,4820.243,-8769.366,9924.778,-199,-108,172
15.546265,629,1870,-753,137,-30,16,8366.697,4807.081,-8763.448,9926.115
15.566284,652,1856,-723,68,-63,-16,8380.153,4794.492,-8767.754,9917.046
15.586273,662,1859,-720,33,-117,-33,8394.233,4782.509,-8775.089,9904.428
15.606262,659,1855,-696,38,-127,-26,8406.809,4768.394,-8782.208,9894.252,-199,-108,172,28398
15.626282,737,1835,-685,31,-119,-8,8416.323,4749.505,-8793.757,9884.987,-198,-117,166
15.646301,681,1827,-674,32,-153,30,8421.280,4735.524,-8808.915,9873.971
15.666321,651,1840,-638,-25,-131,5,8426.825,4727.434,-8824.582,9859.116
15.686340,698,1871,-682,-28,-142,-24,8434.770,4719.537,-8841.528,9840.905
15.706329,704,1901,-609,-44,-149,-29,8442.605,4714.447,-8856.167,9823.448
15.726349,739,1891,-607,-34,-132,-38,8448.825,4708.212,-8871.103,9807.602,-195,-110,175
15.746338,692,1930,-590,-41,-113,-20,8451.084,4707.348,-8883.500,9794.841
15.766358,674,1920,-622,-61,-88,-23,8453.896,4709.199,-8895.604,9780.529
15.786377,677,1939,-604,-62,-86,-50,8460.365,4709.922,-8906.344,9764.800
15.806366,679,1901,-638,-30,-106,-39,8468.976,4704.706,-8913.408,9753.398
15.826386,671,1881,-582,12,-82,-34,8480.791,4697.557,-8916.139,9744.077,-203,-123,172
15.846375,653,1897,-598,40,-87,-40,8494.652,4688.525,-8917.624,9734.990
15.866455,669,1895,-638,58,-78,-47,8510.672,4687.056,-8914.405,9724.648
15.886414,734,1915,-641,75,-45,-138,8527.426,4686.911,-8905.669,9718.043
15.906433,688,1925,-557,65,-6,-44,8538.022,4681.459,-8892.369,9723.545
15.926422,686,1926,-683,116,42,-14,8543.277,4678.267,-8876.286,9735.153,-185,-118,188
15.946442,647,1904,-660,106,68,-3,8555.324,4674.940,-8855.187,9745.382
15.966431,605,1886,-624,127,75,-48,8573.669,4668.246,-8831.542,9753.921
15.986450,642,1878,-644,171,44,-50,8594.997,4656.523,-8807.939,9762.092
16.006470,691,1866,-696,192,18,-36,8616.281,4641.579,-8786.515,9769.750
16.026459,741,1898,-720,179,20,-38,8632.343,4628.379,-8769.556,9777.068,-202,-114,173
16.046478,752,1886,-711,127,22,-12,8639.643,4620.894,-8756.303,9786.035
16.066498,709,1889,-670,75,44,10,8638.328,4619.824,-8748.224,9794.923
16.086487,698,1891,-689,10,61,21,8633.134,4625.122,-8742.360,9802.235
16.106507,676,1856,-709,-25,64,12,8626.185,4634.083,-8739.705,9806.487,-202,-114,173,28400
16.126526,660,1840,-704,-50,55,2,8618.365,4644.898,-8738.277,9809.518,-198,-119,168
16.146515,619,1857,-703,-60,57,1,8611.838,4655.133,-8736.677,9811.823
16.166504,570,1877,-700,-48,44,-5,8608.392,4662.711,-8734.995,9812.747
16.186554,583,1882,-696,-30,23,-9,8608.885,4666.712,-8733.986,9811.310
16.206543,599,1891,-691,-15,0,-19,8610.688,4669.277,-8733.201,9809.206
16.226532,628,1902,-707,-12,-4,-19,8613.314,4671.063,-8732.187,9806.953,-201,-111,169
16.246552,617,1926,-651,-2,-3,-20,8615.768,4672.873,-8730.452,9805.479
16.266571,629,1906,-717,7,0,-17,8618.996,4672.363,-8727.844,9805.208
16.286560,626,1870,-697,22,2,-13,8623.912,4670.281,-8723.242,9805.972
16.306580,620,1885,-704,36,-1,-16,8629.732,4668.456,-8719.447,9805.096
16.326599,613,1869,-714,26,-9,-20,8634.385,4667.077,-8716.836,9803.978,-207,-110,177
16.346619,614,1883,-752,15,-7,-16,8638.856,4665.163,-8713.561,9803.861
16.366608,614,1908,-760,30,-6,-9,8644.773,4660.119,-8708.089,9805.906
16.386627,623,1849,-716,53,0,-2,8652.638,4652.451,-8700.727,9809.145
16.406616,613,1875,-757,75,-8,-7,8660.896,4643.128,-8694.082,9812.167
16.426636,590,1896,-749,82,-8,4,8669.479,4633.102,-8686.738,9815.829,-200,-112,170
16.446655,628,1912,-762,86,-19,5,8680.266,4620.314,-8680.146,9818.155
16.466644,643,1917,-734,95,-29,-3,8690.207,4610.623,-8673.763,9819.558
16.486664,675,1914,-718,65,-17,-15,8699.529,4605.031,-8667.390,9819.555
16.506684,658,1906,-710,55,-4,-28,8708.298,4600.982,-8657.916,9822.037
16.526703,612,1927,-666,80,16,-21,8719.010,4595.632,-8644.975,9826.437,-202,-107,170
16.546692,543,1928,-722,110,20,-31,8732.994,4587.357,-8630.604,9830.518
16.566712,687,1912,-542,124,7,-31,8750.108,4576.803,-8615.158,9833.766
16.586701,636,1923,-646,144,-2,-37,8770.513,4561.716,-8600.444,9835.479
16.606720,613,1923,-702,176,-30,-40,8792.685,4543.120,-8585.961,9836.943,-202,-107,170,28406
16.626740,599,1913,-683,178,-45,-36,8815.493,4522.920,-8574.684,9835.674,-201,-111,162
16.646729,581,1900,-648,160,-77,-34,8837.769,4502.215,-8568.062,9830.953
16.666748,536,1931,-669,146,-99,-41,8859.648,4482.612,-8565.889,9822.108
16.686768,482,1980,-722,121,-130,-44,8884.690,4460.687,-8566.557,9808.878
16.706757,510,2013,-655,130,-165,-61,8917.355,4433.586,-8566.706,9791.377
16.726776,549,2016,-679,171,-197,-85,8956.661,4402.304,-8564.757,9771.300,-203,-106,174
16.746796,618,2000,-715,214,-223,-100,8999.005,4367.765,-8562.226,9750.090
16.766785,610,1994,-710,207,-228,-105,9041.005,4330.584,-8560.684,9729.152
16.786804,718,1974,-785,223,-247,-93,9081.099,4291.150,-8563.121,9707.114
16.806793,924,1923,-892,197,-268,-71,9115.218,4248.440,-8571.802,9686.237
16.826813,983,1882,-882,173,-283,-28,9140.414,4205.505,-8583.378,9670.967,-203,-108,160
16.846832,999,1856,-929,143,-240,17,9156.912,4166.939,-8594.066,9662.558
16.866821,840,1815,-797,116,-182,45,9169.309,4135.247,-8598.900,9660.117
16.886841,647,1658,-786,115,-123,40,9184.506,4109.178,-8597.176,9658.338
16.906861,541,1544,-666,139,-79,-15,9200.989,4093.273,-8592.224,9653.809
16.926850,522,1424,-631,78,-60,-32,9215.686,4087.722,-8587.787,9646.087,-200,-98,157
16.946869,514,1330,-579,43,-39,-78,9225.047,4100.607,-8584.600,9634.501
16.966889,490,1347,-661,-52,18,-119,9222.433,4126.314,-8584.550,9626.068
16.986878,543,1483,-766,-137,74,-83,9208.151,4157.158,-8588.293,9623.130
17.006897,648,1667,-875,-187,104,-32,9182.799,4191.579,-8594.262,9627.095
17.026886,669,1900,-911,-233,167,18,9147.672,4232.627,-8600.592,9636.919,-210,-104,156
17.046906,745,2070,-1043,-277,186,48,9109.034,4272.683,-8612.308,9645.374
17.066925,694,2197,-1106,-300,156,59,9068.351,4314.502,-8628.417,9650.695
17.087006,736,2217,-1111,-335,146,51,9028.557,4353.744,-8649.266,9651.720
17.106934,670,2145,-1045,-341,93,53,8993.000,4388.742,-8671.545,9649.074,-210,-104,156,28398
17.126953,605,2094,-918,-296,57,42,8967.894,4413.029,-8689.875,9644.872,-194,-99,146
17.146942,558,1950,-784,-177,22,18,8960.740,4422.444,-8699.264,9638.743
17.166962,546,1851,-647,-56,-20,-9,8966.466,4422.219,-8697.356,9635.242
17.186981,608,1731,-560,42,-7,-32,8976.078,4418.465,-8689.224,9635.351
17.206970,641,1723,-491,72,12,-34,8980.441,4418.805,-8680.874,9638.656
17.226990,600,1741,-478,26,37,-9,8976.222,4424.497,-8678.608,9642.015,-206,-106,146
17.247009,612,1753,-479,-38,44,10,8965.246,4434.692,-8682.230,9644.283
17.266998,627,1801,-567,-89,44,25,8947.345,4444.250,-8694.360,9645.579
17.287018,624,1868,-559,-137,-1,64,8926.794,4452.147,-8713.599,9643.617
17.307038,640,1907,-678,-174,-16,75,8903.213,4464.074,-8736.960,9638.765
17.327027,595,1922,-671,-216,-29,58,8881.387,4479.964,-8764.255,9626.741,-190,-105,170
17.347046,604,1955,-784,-240,-46,14,8860.444,4499.052,-8793.589,9610.374
17.367035,634,2007,-816,-249,-77,16,8842.705,4513.181,-8822.721,9593.372
17.387055,643,2023,-831,-214,-77,6,8830.969,4526.925,-8842.626,9579.369
17.407074,768,2079,-763,-166,-44,-17,8824.542,4536.798,-8858.924,9565.553
17.427063,642,2020,-743,-119,-76,-33,8821.567,4540.333,-8871.391,9555.060,-198,-112,159
17.447083,578,1940,-694,-88,-71,-13,8821.768,4540.095,-8881.350,9545.732
17.467072,568,1909,-667,-45,-56,0,8822.042,4541.982,-8887.411,9538.937
17.487091,648,1879,-623,-23,-43,-28,8828.837,4540.579,-8889.460,9531.407
17.507111,622,1781,-1004,17,-49,-45,8840.055,4537.673,-8888.077,9523.680
17.527130,585,1849,-676,30,-47,-52,8857.558,4529.411,-8881.735,9517.264,-200,-107,164
17.547119,635,1806,-609,58,-69,-71,8878.149,4520.972,-8877.195,9506.319
17.567139,659,1859,-652,81,-85,-90,8902.057,4509.857,-8872.964,9493.182
17.587158,661,1882,-672,107,-106,-93,8929.135,4496.229,-8868.438,9478.433
17.607147,649,1972,-604,118,-125,-106,8955.538,4484.151,-8865.980,9461.531,-200,-107,164,28414
17.627167,657,2024,-622,88,-122,-104,8981.029,4470.491,-8864.328,9445.366,-195,-100,182
17.647156,685,2003,-593,109,-134,-87,9009.661,4450.485,-8862.715,9429.046
17.667175,715,2001,-612,142,-162,-83,9039.812,4428.174,-8860.728,9412.544
17.687195,733,2004,-689,146,-150,-86,9067.505,4406.679,-8856.776,9399.706
17.707184,682,2001,-643,152,-130,-62,9095.134,4383.305,-8846.789,9393.344
17.727204,692,1967,-593,202,-89,-55,9125.559,4358.679,-8826.845,9394.057,-207,-98,182
17.747223,687,1923,-627,260,-42,-50,9155.985,4333.929,-8799.367,9401.678
17.767243,660,1902,-637,276,9,-32,9180.067,4313.852,-8768.273,9416.468
17.787232,589,1889,-590,237,67,-16,9196.662,4304.381,-8736.655,9433.981
17.807251,545,1902,-594,186,127,-19,9205.442,4305.305,-8705.944,9453.367
17.827271,527,1859,-648,135,161,-5,9207.794,4312.105,-8677.001,9474.564,-202,-100,173
17.847260,550,1834,-708,95,178,4,9206.701,4320.465,-8652.304,9494.383
17.867279,558,1797,-752,58,164,14,9200.050,4332.239,-8632.457,9513.511
17.887268,600,1782,-826,10,166,27,9188.257,4344.509,-8619.583,9530.970
17.907288,657,1780,-888,-31,140,51,9171.070,4356.903,-8613.876,9547.012
17.927277,664,1788,-963,-76,122,68,9150.124,4370.841,-8614.793,9559.903,-213,-104,167
17.947327,676,1814,-940,-120,100,67,9129.339,4386.786,-8619.689,9568.054
17.967316,655,1835,-906,-139,77,43,9112.232,4403.881,-8627.300,9569.649
17.987335,611,1858,-885,-140,37,9,9101.066,4419.721,-8636.179,9564.962
18.007324,616,1817,-834,-132,16,-24,9094.527,4433.548,-8643.020,9558.602
18.027313,603,1829,-746,-94,12,-30,9087.934,4447.729,-8646.182,9555.423,-209,-105,152
18.047333,584,1813,-718,-97,53,-21,9079.185,4463.273,-8646.079,9556.585
18.067352,551,1830,-639,-63,57,-14,9071.572,4478.359,-8643.934,9558.698
18.087372,559,1877,-691,-73,73,-15,9060.352,4496.532,-8643.701,9561.020
18.107361,539,1906,-674,-96,79,-7,9046.114,4514.585,-8645.733,9564.156,-209,-105,152,28394
18.127381,526,1936,-677,-113,75,17,9030.472,4532.140,-8649.731,9567.020,-201,-104,160
18.147370,551,1986,-646,-121,67,19,9016.287,4546.502,-8656.542,9567.423
18.167389,551,1947,-561,-108,30,24,9001.809,4557.102,-8665.302,9568.084
18.187409,597,1918,-528,-102,24,46,8986.591,4563.674,-8675.893,9569.659
18.207428,587,1914,-518,-104,13,64,8967.934,4570.062,-8689.419,9571.840
18.227417,612,1901,-549,-119,8,79,8944.035,4575.951,-8707.871,9574.618,-201,-106,172
18.247437,620,1917,-538,-160,-1,122,8916.099,4579.174,-8730.144,9578.849
18.267456,633,1937,-503,-167,-5,139,8886.704,4584.600,-8754.632,9581.220
18.287445,652,1957,-514,-184,-20,122,8858.434,4593.155,-8780.032,9580.060
18.307526,658,1999,-522,-199,-16,95,8831.223,4604.898,-8805.430,9576.233
18.327454,657,2011,-474,-207,-19,78,8807.264,4617.558,-8829.595,9569.949,-214,-86,168
18.347473,649,2019,-460,-194,-22,53,8786.826,4630.697,-8850.514,9563.063
18.367462,636,2000,-445,-171,-13,35,8770.378,4643.471,-8866.840,9556.842
18.387482,634,2007,-448,-139,-4,22,8757.934,4654.550,-8878.789,9551.768
18.407501,598,2007,-447,-103,4,9,8748.585,4664.362,-8885.616,9549.201
18.427521,587,1983,-417,-71,17,5,8742.509,4671.608,-8888.609,9548.438,-194,-108,183
18.447540,600,1987,-444,-38,19,4,8738.254,4675.391,-8889.890,9549.289
18.467529,577,2002,-430,-14,15,15,8735.460,4675.895,-8889.650,9551.822
18.487549,636,1968,-426,6,14,21,8734.196,4672.815,-8888.514,9555.541
18.507538,637,1985,-429,28,6,30,8734.597,4666.663,-8886.597,9559.962
18.527558,657,1954,-413,44,-1,32,8735.848,4659.256,-8885.160,9563.768,-199,-104,190
18.547577,645,1956,-415,41,-12,30,8736.906,4651.483,-8885.543,9566.228
18.567566,674,1961,-433,31,-20,31,8737.115,4643.806,-8888.036,9567.452
18.587586,695,1940,-398,15,-31,34,8736.821,4636.547,-8892.586,9567.013
18.607605,687,1961,-428,5,-37,29,8735.052,4630.870,-8898.123,9566.229,-199,-104,190,28414
18.627594,673,1945,-421,-4,-32,31,8731.687,4626.649,-8904.037,9565.841,-201,-99,188
18.647583,664,1944,-430,-15,-25,32,8727.574,4623.969,-8909.174,9566.107
18.667603,668,1922,-440,-18,-11,33,8723.486,4621.656,-8913.349,9567.064
18.687622,658,1906,-437,-12,-8,31,8719.183,4619.683,-8916.562,9568.946
18.707611,655,1918,-445,-12,-1,34,8714.344,4618.041,-8920.069,9570.878
18.727631,648,1885,-428,-21,-3,32,8708.017,4617.320,-8924.425,9572.923,-196,-99,183
18.747650,643,1914,-416,-29,1,45,8699.691,4616.780,-8930.445,9575.140
18.767670,664,1895,-441,-41,-2,49,8690.261,4616.345,-8937.785,9577.063
18.787659,678,1928,-446,-48,-5,54,8678.089,4616.394,-8946.650,9579.800
18.807678,677,1932,-421,-66,0,71,8663.499,4617.245,-8956.768,9583.139
18.827698,709,1966,-406,-76,4,76,8647.900,4617.366,-8967.567,9587.071,-210,-101,169
18.847687,709,1976,-400,-72,0,89,8629.908,4614.175,-8979.323,9593.813
18.867706,704,1997,-396,-57,3,116,8611.169,4609.333,-8991.193,9601.859
18.887726,743,2012,-434,-55,-1,124,8592.838,4602.748,-9004.437,9609.027
18.907715,760,2012,-405,-63,-13,128,8576.159,4595.222,-9017.055,9615.694
18.927704,733,1972,-371,-49,-16,118,8561.557,4586.842,-9027.701,9622.716,-193,-88,173
18.947754,744,1972,-374,-30,-10,112,8548.128,4577.872,-9035.596,9631.512
18.967743,750,1968,-354,-12,-1,113,8535.832,4567.945,-9041.157,9641.906
18.987763,763,1944,-362,3,16,110,8525.853,4557.210,-9044.099,9653.050
19.007782,790,1923,-395,26,15,102,8518.973,4547.068,-9043.231,9664.713
19.027771,798,1926,-407,43,28,80,8514.210,4539.445,-9037.842,9677.526,-198,-93,168
19.047791,782,1899,-437,56,54,63,8511.319,4534.162,-9028.453,9691.300
19.067810,755,1877,-456,69,73,42,8511.177,4530.344,-9015.723,9705.051
19.087799,735,1898,-467,78,80,25,8512.937,4528.304,-9000.396,9718.676
19.107788,723,1880,-454,84,88,15,8515.648,4526.880,-8983.537,9732.553,-198,-93,168,28398
19.127808,725,1857,-434,87,97,11,8517.914,4526.100,-8965.860,9747.222,-202,-98,177
19.147827,733,1852,-435,88,104,12,8518.732,4526.289,-8948.355,9762.494
19.167816,723,1877,-448,73,111,18,8516.080,4528.862,-8932.921,9777.736
19.187836,727,1880,-459,44,115,27,8510.205,4533.001,-8920.279,9792.464
19.207855,726,1910,-469,23,112,35,8501.451,4539.452,-8909.369,9807.002
19.227875,734,1913,-502,3,115,39,8491.126,4546.103,-8900.472,9820.934,-194,-108,174
19.247864,711,1907,-488,-9,109,44,8480.243,4553.489,-8892.643,9833.999
19.267883,738,1875,-487,-17,103,42,8468.878,4561.146,-8886.996,9845.343
19.287872,719,1884,-494,-32,94,41,8456.152,4570.143,-8882.870,9855.827
19.307892,736,1885,-538,-48,91,41,8442.736,4579.672,-8880.084,9865.411
19.327912,735,1879,-517,-51,85,38,8429.243,4590.160,-8877.696,9874.220,-198,-107,177
19.347901,721,1916,-547,-60,87,41,8414.322,4600.797,-8875.815,9883.683
19.367920,742,1895,-585,-61,94,41,8399.665,4611.614,-8871.856,9894.657
19.388001,738,1901,-564,-47,104,44,8387.157,4620.871,-8865.823,9906.350
19.407929,715,1883,-571,-32,105,40,8375.309,4629.212,-8858.283,9919.216
19.427948,729,1897,-602,-22,111,41,8364.486,4636.833,-8848.918,9933.138,-190,-105,173
19.447968,707,1885,-585,-3,117,41,8353.659,4645.095,-8837.957,9948.136
19.467957,733,1865,-589,-9,129,42,8342.535,4654.099,-8825.877,9963.975
19.487976,713,1909,-595,-7,139,36,8330.564,4664.967,-8812.086,9981.100
19.507965,720,1884,-583,-12,156,39,8317.097,4677.506,-8797.351,9999.444
19.528046,706,1887,-600,-16,173,39,8301.563,4693.021,-8780.993,10019.441,-189,-104,178
19.548004,686,1912,-642,-30,190,40,8285.019,4710.960,-8763.557,10039.961
19.567993,685,1902,-647,-39,209,36,8266.331,4731.085,-8745.128,10061.947
19.588013,655,1941,-664,-43,224,43,8245.876,4752.624,-8725.220,10085.835
19.608032,596,1907,-679,-45,241,49,8225.707,4774.153,-8703.776,10110.634,-189,-104,178,28410
19.628021,582,1886,-681,-35,243,42,8208.082,4794.807,-8682.206,10133.703,-187,-104,174
19.648041,600,1896,-700,-28,215,37,8191.666,4811.299,-8662.414,10156.083
19.668060,592,1868,-674,-18,207,49,8175.378,4823.946,-8643.489,10179.305
19.688049,590,1893,-695,1,193,63,8160.361,4831.873,-8624.904,10203.331
19.708069,642,1873,-667,20,178,78,8146.375,4834.915,-8608.455,10226.930
19.728089,648,1855,-674,34,147,87,8133.268,4834.469,-8594.209,10249.530,-187,-104,165
19.748078,699,1831,-651,35,129,97,8119.845,4831.849,-8584.519,10269.509
19.768097,732,1837,-666,22,93,102,8104.710,4827.868,-8579.514,10287.503
19.788117,775,1865,-704,1,82,118,8086.105,4823.122,-8578.592,10305.124
19.808106,781,1900,-667,-22,69,138,8063.287,4820.725,-8580.542,10322.487
19.828125,800,1907,-639,-49,77,143,8037.730,4820.110,-8583.850,10339.941,-174,-98,168
19.848114,851,1908,-630,-65,82,150,8008.220,4820.981,-8588.408,10358.630
19.868134,847,1911,-627,-79,97,165,7976.462,4823.955,-8592.269,10378.529
19.888153,836,1889,-656,-84,109,167,7945.150,4828.156,-8594.028,10399.116
19.908142,826,1833,-618,-82,125,156,7913.599,4836.634,-8592.057,10420.840
19.928162,790,1820,-638,-88,161,138,7881.348,4849.868,-8585.431,10444.565,-175,-113,172
19.948151,785,1797,-629,-87,199,128,7849.043,4866.203,-8574.080,10470.586
19.968201,772,1790,-601,-81,229,117,7816.091,4885.987,-8557.857,10499.256
19.988190,792,1805,-639,-83,271,111,7781.019,4910.793,-8537.583,10530.192
20.008209,764,1818,-633,-95,302,100,7744.960,4940.218,-8514.046,10562.021
20.028198,729,1852,-661,-101,330,90,7709.072,4972.147,-8487.821,10594.351,-181,-112,168
20.048218,713,1886,-631,-104,343,79,7673.166,5006.179,-8461.474,10625.422
20.068207,716,1881,-618,-113,334,69,7639.152,5039.278,-8436.988,10653.717
20.088226,726,1924,-624,-112,317,65,7604.143,5071.672,-8414.990,10680.755
20.108246,759,1894,-618,-127,300,81,7569.876,5100.947,-8395.133,10706.749,-181,-112,168,28398
20.128235,791,1900,-626,-113,284,79,7535.167,5129.493,-8378.014,10730.977,-168,-108,174
20.148255,775,1897,-582,-127,264,85,7499.875,5158.333,-8363.952,10752.823
20.168274,794,1908,-564,-140,249,73,7466.476,5187.545,-8352.096,10771.212
20.188294,788,1871,-567,-145,225,66,7434.760,5215.876,-8340.975,10788.074
20.208283,761,1834,-527,-143,224,60,7402.676,5246.191,-8328.653,10804.944
20.228302,752,1827,-502,-145,236,52,7369.818,5278.651,-8315.133,10821.997,-173,-94,162
20.248291,751,1821,-534,-156,256,49,7334.691,5314.743,-8298.608,10840.864
20.268311,732,1828,-503,-159,287,46,7297.361,5354.077,-8277.952,10862.473
20.288330,698,1819,-509,-165,324,43,7257.535,5396.684,-8253.718,10886.485
20.308319,673,1838,-499,-169,356,43,7216.731,5441.170,-8225.410,10912.861
20.328339,676,1834,-469,-159,379,43,7174.867,5487.975,-8194.449,10940.285,-173,-115,151
20.348328,626,1864,-501,-166,401,37,7130.463,5537.916,-8161.576,10968.686
20.368347,610,1891,-516,-180,423,39,7084.548,5588.883,-8127.942,10997.524
20.388367,598,1897,-520,-186,426,45,7036.951,5640.299,-8093.338,11027.314
20.408356,636,1918,-520,-188,440,53,6987.592,5690.328,-8059.334,11057.860
20.428375,628,1942,-534,-187,432,69,6937.544,5738.294,-8028.141,11087.237,-164,-112,157
20.448364,652,1954,-569,-194,410,78,6884.534,5785.271,-8000.314,11115.945
20.468384,693,1957,-571,-212,403,98,6829.376,5831.548,-7976.407,11142.936
20.488403,697,2027,-607,-222,381,114,6775.142,5875.050,-7956.040,11167.725
20.508423,713,1967,-599,-215,355,113,6724.739,5914.937,-7935.040,11192.050
20.528412,714,1959,-619,-199,337,94,6680.692,5953.348,-7913.079,11213.591,-162,-117,143
20.548432,692,1949,-612,-170,323,65,6639.571,5991.087,-7887.990,11235.569
20.568451,690,1935,-650,-151,333,53,6600.013,6028.673,-7859.090,11258.999
20.588440,660,1911,-699,-139,354,46,6561.631,6067.387,-7824.602,11284.629
20.608460,599,1907,-714,-118,381,28,6525.709,6106.229,-7783.663,11312.785,-162,-117,143,28400
20.628479,551,1881,-722,-94,411,11,6491.032,6146.362,-7737.296,11342.769,-166,-130,153
20.648468,544,1841,-756,-83,429,5,6456.731,6184.164,-7689.874,11374.006
20.668488,527,1840,-778,-64,429,11,6422.313,6221.131,-7639.573,11407.181
20.688477,516,1836,-731,-58,449,10,6387.053,6256.671,-7585.840,11443.342
20.708496,560,1858,-717,-34,467,21,6350.723,6288.373,-7529.750,11483.160
20.728516,506,1864,-706,-11,483,41,6312.261,6317.826,-7472.030,11525.824,-151,-132,160
20.748566,507,1869,-739,2,492,56,6273.521,6346.077,-7414.969,11568.229
20.768524,510,1879,-732,-8,480,58,6233.369,6375.092,-7361.701,11607.933
20.788544,474,1870,-757,-31,451,66,6192.452,6404.617,-7314.198,11643.554
20.808563,494,1871,-732,-56,427,71,6151.964,6434.755,-7270.866,11675.496
20.828583,505,1867,-722,-71,390,69,6111.857,6464.929,-7233.376,11703.144,-162,-129,166
20.848572,530,1877,-708,-89,364,70,6071.814,6494.932,-7199.601,11728.176
20.868561,511,1900,-708,-109,348,71,6028.857,6528.697,-7169.006,11750.310
20.888580,526,1936,-757,-145,345,77,5983.470,6564.249,-7140.861,11770.822
20.908569,515,1958,-794,-163,335,86,5937.837,6601.271,-7114.363,11789.257
20.928589,524,1989,-814,-180,329,80,5892.097,6638.599,-7087.880,11807.183,-141,-133,143
20.948609,486,2006,-811,-177,338,83,5845.098,6675.524,-7060.277,11826.247
20.968628,469,1975,-770,-170,340,89,5801.421,6709.504,-7030.812,11846.062
20.988617,438,1924,-753,-137,335,75,5759.533,6738.943,-7001.407,11867.188
21.008637,460,1871,-698,-111,323,88,5719.194,6762.989,-6971.504,11890.599
21.028626,457,1815,-600,-73,318,100,5679.303,6782.770,-6940.724,11916.430,-157,-131,134
21.048645,450,1799,-633,-50,319,105,5640.277,6798.829,-6910.767,11943.196
21.068665,496,1830,-695,-33,304,119,5599.963,6811.702,-6884.741,11969.833
21.088684,552,1881,-734,-45,286,146,5557.184,6822.761,-6862.108,11996.439
21.108673,543,1870,-731,-50,273,162,5512.887,6832.758,-6843.600,12021.733,-157,-131,134,28382
21.128693,564,1907,-761,-55,248,174,5469.760,6842.384,-6828.792,12044.356,-136,-140,139
21.148712,572,1931,-784,-64,218,168,5430.356,6852.050,-6818.975,12062.241
21.168701,608,1944,-822,-85,175,153,5394.141,6861.076,-6813.560,12076.411
21.188721,644,1960,-874,-87,146,145,5360.596,6868.082,-6809.877,12089.435
21.208710,655,1980,-838,-76,131,142,5330.036,6872.233,-6805.030,12103.310
21.228729,715,1944,-785,-51,130,136,5301.778,6874.296,-6800.462,12117.109,-143,-140,136
21.248749,695,1922,-802,-28,117,128,5273.493,6875.550,-6793.793,12132.472
21.268738,713,1881,-777,-30,136,130,5244.772,6876.354,-6785.516,12149.087
21.288757,738,1806,-751,-23,147,129,5216.283,6876.709,-6777.300,12165.726
21.308746,748,1766,-710,-22,141,127,5187.331,6878.470,-6767.454,12182.579
21.328766,725,1722,-671,-26,157,129,5156.264,6879.594,-6758.350,12200.174,-133,-144,133
21.348786,769,1689,-698,-27,159,139,5122.646,6882.237,-6749.077,12217.967
21.368805,768,1687,-638,-44,171,150,5082.543,6889.417,-6738.015,12236.758
21.388794,787,1721,-699,-80,219,161,5035.236,6904.062,-6723.552,12256.002
21.408814,791,1748,-726,-124,261,169,4978.948,6926.816,-6706.630,12275.416
21.428803,769,1841,-758,-179,317,186,4915.557,6956.441,-6685.474,12295.735,-140,-144,131
21.448822,717,1855,-786,-217,363,179,4850.114,6991.557,-6662.262,12314.391
21.468811,801,1882,-769,-238,362,169,4785.274,7032.800,-6638.845,12328.911
21.488831,733,1943,-773,-267,359,138,4721.386,7080.417,-6609.419,12342.091
21.508850,728,1940,-752,-280,407,102,4663.011,7131.511,-6573.086,12354.264
21.528870,627,1913,-763,-254,411,44,4610.157,7182.773,-6528.834,12367.861,-127,-143,118
21.548859,613,1913,-778,-222,449,14,4559.755,7231.977,-6477.139,12385.041
21.568878,572,1906,-756,-191,465,5,4511.543,7277.667,-6421.008,12405.145
21.588867,576,1878,-709,-159,492,1,4464.592,7318.744,-6359.565,12429.592
21.608887,552,1836,-686,-112,500,-2,4420.683,7355.715,-6296.921,12455.329,-127,-143,118,28406
21.628906,534,1858,-702,-92,492,-6,4379.224,7390.167,-6235.247,12480.583,-122,-150,116
21.648926,515,1843,-665,-79,472,-11,4339.376,7422.384,-6175.632,12505.000
21.668915,531,1845,-635,-73,453,-6,4299.491,7453.433,-6121.249,12527.029
21.688934,494,1851,-651,-81,418,11,4260.955,7480.853,-6071.206,12548.186
21.708923,510,1853,-657,-70,389,21,4225.106,7506.222,-6026.470,12566.710
21.728943,509,1856,-687,-73,348,21,4192.014,7529.958,-5986.515,12582.679,-141,-143,118
21.748963,568,1864,-715,-77,318,17,4160.641,7554.171,-5949.742,12596.013
21.768952,591,1895,-733,-91,297,19,4128.459,7579.058,-5916.073,12607.506
21.788971,572,1944,-745,-105,288,23,4095.285,7605.744,-5883.570,12617.462
21.808991,608,1980,-802,-121,286,24,4059.772,7634.545,-5852.300,12626.083
21.828980,576,2047,-772,-139,290,30,4023.789,7663.662,-5819.076,12635.315,-129,-143,109
21.848999,552,2021,-744,-129,303,28,3989.505,7690.664,-5783.021,12646.329
21.869019,542,1975,-777,-104,308,10,3957.049,7715.340,-5743.592,12659.458
21.889008,542,1945,-763,-74,321,10,3925.812,7736.246,-5702.222,12675.117
21.909027,501,1905,-763,-50,328,13,3894.170,7753.444,-5658.970,12693.740
21.929047,474,1864,-760,-25,338,22,3862.530,7768.277,-5614.615,12714.018,-123,-139,117
21.949036,472,1825,-735,-15,340,26,3830.052,7780.831,-5570.057,12735.747
21.969116,479,1812,-694,-3,338,37,3797.687,7790.711,-5526.656,12758.287
21.989075,460,1779,-716,9,331,47,3765.715,7799.831,-5485.758,12779.825
22.009064,506,1785,-688,8,313,47,3734.093,7809.059,-5449.281,12799.059
22.029083,470,1802,-742,-10,287,54,3701.943,7818.890,-5416.153,12816.446,-124,-145,102
22.049072,516,1819,-719,-23,271,65,3671.009,7828.996,-5387.338,12831.310
22.069092,491,1828,-745,-36,240,61,3641.307,7839.763,-5361.582,12843.982
22.089111,536,1859,-746,-48,222,63,3611.331,7851.803,-5338.343,12854.766
22.109100,553,1911,-774,-65,216,66,3579.819,7865.826,-5316.121,12864.213,-124,-145,102,28415
22.129120,552,1962,-800,-74,218,72,3548.486,7879.997,-5294.969,12872.941,-136,-157,97
22.149140,555,2000,-861,-74,213,69,3517.146,7893.046,-5273.161,12882.496
22.169129,588,2027,-894,-60,213,71,3487.803,7904.284,-5250.569,12892.807
22.189148,558,2013,-958,-50,217,68,3459.310,7913.126,-5226.035,12905.022
22.209168,555,2010,-939,-22,217,54,3433.277,7918.665,-5198.889,12919.533
22.229157,569,1996,-1001,-2,219,55,3410.162,7920.120,-5171.888,12935.590,-137,-144,87
22.249176,532,1962,-989,28,212,49,3387.339,7918.268,-5144.876,12953.480
22.269165,601,1934,-1007,52,205,58,3365.940,7911.840,-5118.717,12973.334
22.289185,577,1928,-989,75,199,67,3345.575,7901.787,-5092.554,12995.007
22.309204,577,1901,-1043,98,198,64,3326.089,7889.142,-5067.322,13017.536
22.329193,601,1855,-1078,106,182,69,3309.972,7875.099,-5043.158,13039.513,-126,-142,87
22.349213,572,1840,-1117,114,166,48,3298.287,7860.283,-5020.182,13060.262
22.369202,606,1765,-1081,117,143,31,3290.254,7845.926,-4999.139,13078.980
22.389343,641,1731,-1059,109,123,21,3284.209,7833.190,-4979.294,13095.693
22.409241,634,1706,-1001,95,116,4,3278.795,7823.344,-4960.163,13110.187
22.429230,623,1677,-1013,78,111,5,3271.751,7815.089,-4942.029,13123.712,-143,-150,86
22.449249,638,1631,-960,64,116,12,3262.578,7810.355,-4923.707,13135.694
22.469269,624,1624,-1007,33,126,3,3250.339,7812.947,-4902.484,13145.122
22.489288,611,1660,-1069,-12,158,3,3232.938,7823.943,-4878.781,13151.690
22.509277,598,1704,-1035,-69,190,-3,3210.568,7842.678,-4851.610,13156.062
22.529297,540,1745,-1021,-108,223,3,3182.579,7866.614,-4820.328,13160.070,-141,-152,79
22.549286,547,1795,-957,-132,260,5,3152.474,7894.212,-4786.475,13163.146
22.569306,506,1808,-948,-152,279,1,3119.219,7926.904,-4749.740,13164.728
22.589325,510,1855,-943,-181,300,1,3084.386,7964.276,-4712.507,13163.760
22.609314,472,1891,-963,-209,307,-6,3049.006,8004.248,-4675.935,13160.799,-141,-152,79,28375
22.629334,443,1944,-992,-225,296,-5,3013.749,8045.439,-4640.622,13156.302,-126,-153,67
22.649353,445,1950,-994,-236,292,-3,2979.969,8084.312,-4607.625,13151.764
22.669342,434,1970,-969,-210,263,0,2949.154,8119.099,-4577.351,13147.852
22.689362,398,1958,-966,-186,243,4,2920.932,8148.203,-4549.898,13145.676
22.709381,431,1931,-946,-152,214,11,2896.717,8171.578,-4527.161,13144.374
22.729370,421,1905,-915,-123,176,16,2875.101,8189.851,-4508.561,13144.141,-142,-153,69
22.749390,452,1908,-928,-95,152,26,2856.247,8203.005,-4493.503,13145.205
22.769409,486,1869,-919,-68,125,29,2838.816,8211.038,-4480.666,13148.347
22.789398,476,1853,-896,-36,110,41,2823.111,8214.349,-4469.276,13153.536
22.809418,492,1815,-927,-12,102,41,2810.055,8215.095,-4459.846,13159.066
22.829407,506,1798,-942,-3,79,38,2798.304,8214.321,-4452.294,13164.609,-143,-140,70
22.849426,523,1831,-945,-1,67,44,2785.360,8213.435,-4446.528,13169.855
22.869446,547,1811,-914,-7,69,54,2771.247,8213.757,-4441.701,13174.259
22.889465,558,1824,-898,-23,70,55,2755.271,8217.353,-4436.767,13177.030
22.909454,566,1820,-901,-44,74,53,2737.512,8223.475,-4430.883,13178.892
22.929474,560,1816,-926,-60,87,57,2719.399,8232.168,-4425.315,13179.086,-137,-151,64
22.949494,572,1847,-951,-70,85,49,2701.094,8242.162,-4418.991,13178.726
22.969483,601,1858,-973,-80,91,46,2683.372,8250.927,-4411.080,13179.512
22.989502,596,1858,-1023,-61,93,44,2666.468,8257.486,-4401.397,13182.071
23.009491,602,1868,-1038,-44,98,37,2651.562,8260.641,-4390.335,13186.790
23.029511,577,1877,-1058,-15,105,32,2636.715,8260.104,-4375.956,13194.880,-140,-146,73
23.049530,586,1841,-1113,14,125,29,2622.024,8257.024,-4357.468,13205.849
23.069519,531,1837,-1060,34,141,24,2608.798,8252.098,-4335.585,13218.743
23.089539,554,1828,-1071,47,159,16,2596.242,8245.049,-4312.550,13233.142
23.109558,534,1798,-1144,68,155,9,2584.325,8237.113,-4286.499,13248.871,-140,-146,73,28410
23.129547,523,1799,-1120,74,172,3,2571.723,8228.731,-4258.129,13265.670,-131,-152,66
23.149567,491,1815,-1169,79,182,8,2559.808,8220.508,-4229.032,13282.370
23.169586,488,1780,-1152,78,188,-12,2548.055,8213.161,-4200.036,13298.366
23.189636,486,1792,-1169,65,176,3,2534.711,8208.328,-4172.642,13312.516
23.209595,507,1807,-1220,40,174,6,2521.868,8205.250,-4146.951,13324.874
23.229584,490,1798,-1212,37,163,-1,2511.344,8201.695,-4122.564,13336.613,-141,-152,63
23.249603,468,1787,-1198,40,145,-9,2502.963,8197.672,-4099.412,13347.793
23.269623,468,1796,-1182,44,134,-7,2494.585,8192.570,-4078.368,13358.937
23.289642,471,1778,-1222,43,122,-2,2485.817,8188.715,-4059.731,13368.608
23.309632,475,1784,-1230,26,116,3,2476.318,8186.075,-4042.329,13377.258
23.329651,457,1800,-1231,17,107,8,2468.327,8183.806,-4026.509,13384.892,-139,-143,43
23.349640,484,1811,-1245,18,96,0,2462.097,8179.706,-4011.112,13393.166
23.369660,488,1824,-1309,35,89,-4,2457.865,8174.079,-3996.845,13401.641
23.389649,515,1814,-1329,41,76,-7,2454.725,8166.906,-3983.166,13410.659
23.409668,488,1833,-1315,46,72,-5,2450.684,8160.191,-3969.882,13419.422
23.429688,487,1801,-1304,39,73,0,2446.186,8154.182,-3957.992,13427.405,-136,-157,36
23.449677,479,1787,-1267,35,64,3,2442.001,8148.245,-3946.855,13435.047
23.469696,453,1767,-1218,34,61,2,2438.189,8142.532,-3937.415,13441.972
23.489716,469,1747,-1209,31,50,4,2435.759,8138.033,-3930.710,13447.098
23.509705,458,1709,-1153,16,31,1,2432.840,8135.670,-3926.273,13450.352
23.529724,513,1720,-1134,0,24,10,2429.954,8135.043,-3925.568,13451.459,-136,-145,34
23.549744,525,1723,-1127,-21,1,14,2425.744,8138.408,-3927.647,13449.576
23.569763,536,1749,-1136,-58,-5,19,2420.610,8146.371,-3932.244,13444.336
23.589752,530,1780,-1127,-92,-14,20,2414.326,8159.023,-3938.321,13436.013
23.609772,517,1813,-1073,-122,-15,22,2407.033,8174.506,-3945.775,13425.719,-136,-145,34,28410
23.629761,543,1852,-1083,-138,-20,24,2398.762,8190.995,-3953.466,13414.883,-137,-149,32
23.649780,541,1846,-1047,-135,-14,27,2390.821,8206.177,-3961.198,13404.737
23.669769,547,1840,-1004,-126,-23,27,2384.475,8220.838,-3969.299,13394.484
23.689789,566,1839,-971,-123,-20,23,2378.102,8234.733,-3975.867,13385.131
23.709809,533,1850,-953,-113,-16,18,2373.039,8247.420,-3981.023,13376.682
23.729798,549,1841,-950,-96,-11,8,2369.042,8257.862,-3984.076,13370.038,-135,-156,37
23.749817,526,1838,-941,-75,-2,6,2364.796,8266.012,-3985.431,13365.349
23.769837,524,1851,-969,-59,4,6,2359.966,8271.872,-3985.752,13362.481
23.789856,535,1847,-989,-45,13,15,2353.847,8275.929,-3985.842,13361.021
23.809845,560,1849,-980,-37,17,24,2348.394,8277.579,-3985.809,13360.969
23.829865,564,1874,-931,-21,13,21,2343.286,8278.625,-3986.612,13360.978,-142,-149,44
23.849854,599,1888,-943,-20,6,22,2338.246,8279.993,-3988.673,13360.398
23.869873,578,1867,-936,-25,4,28,2333.432,8280.995,-3991.854,13359.669
23.889893,590,1858,-907,-23,-5,24,2329.875,8282.329,-3994.851,13358.566
23.909882,582,1853,-943,-21,-7,17,2328.285,8284.621,-3998.437,13356.350
23.929901,579,1840,-955,-33,-19,7,2328.221,8287.113,-4001.921,13353.771,-144,-146,46
23.949890,571,1805,-885,-27,-18,1,2328.682,8288.411,-4004.892,13351.994
23.969910,576,1821,-864,-21,-20,0,2328.422,8291.221,-4009.297,13348.973
23.989929,587,1781,-810,-43,-24,7,2326.130,8295.989,-4014.626,13344.807
24.009949,608,1777,-783,-55,-21,17,2321.153,8301.332,-4022.014,13340.126
24.029968,549,1829,-812,-59,-22,37,2311.600,8307.866,-4032.558,13334.533,-140,-144,51
24.049957,614,1836,-806,-79,-27,69,2300.880,8314.077,-4043.341,13329.250
24.069977,621,1898,-883,-84,-18,60,2290.133,8323.187,-4056.060,13321.549
24.089966,672,1929,-901,-107,-29,65,2281.936,8333.004,-4066.738,13313.560
24.109986,630,1924,-878,-97,-29,35,2276.276,8345.758,-4074.732,13304.093,-140,-144,51,28410
24.129975,635,1953,-967,-116,-23,11,2274.176,8358.182,-4081.053,13294.711,-141,-140,52
24.149994,632,1934,-972,-78,-28,-8,2275.101,8363.808,-4082.213,13290.659
24.170014,606,1908,-970,-19,2,-20,2277.492,8362.603,-4076.268,13292.832
24.190003,586,1869,-959,32,28,-31,2281.673,8356.064,-4065.929,13299.391
24.210022,561,1842,-992,69,43,-40,2286.387,8346.947,-4051.143,13308.816
24.230042,543,1841,-1006,86,72,-47,2288.794,8335.729,-4031.843,13321.288,-139,-145,50
24.250031,519,1832,-1026,104,97,-41,2290.441,8321.659,-4008.577,13336.814
24.270050,508,1829,-1101,131,118,-45,2293.224,8304.350,-3983.099,13354.746
24.290070,466,1814,-1134,152,118,-51,2295.448,8286.029,-3957.633,13373.302
24.310059,460,1829,-1144,145,120,-39,2296.505,8267.977,-3933.936,13391.273
24.330078,453,1817,-1102,138,108,-29,2298.191,8250.670,-3913.805,13407.547,-148,-152,50
24.350098,462,1778,-1006,130,82,-29,2302.301,8234.413,-3899.243,13421.072
24.370087,500,1769,-953,110,46,-25,2307.914,8220.778,-3892.187,13430.512
24.390106,514,1778,-910,86,0,-16,2313.030,8211.407,-3892.118,13435.384
24.410156,548,1777,-847,41,-27,-5,2317.224,8206.901,-3898.409,13435.590
24.430115,534,1781,-806,2,-57,6,2319.811,8208.709,-3911.257,13430.304,-137,-153,53
24.450134,601,1773,-791,-59,-83,21,2321.904,8216.074,-3929.327,13420.161
24.470154,597,1805,-814,-98,-106,19,2322.914,8230.096,-3950.706,13405.108
24.490143,632,1838,-855,-143,-113,24,2321.447,8248.211,-3974.704,13387.122
24.510163,636,1880,-877,-170,-121,38,2317.951,8267.638,-4000.615,13368.013
24.530152,637,1908,-918,-177,-121,45,2315.135,8287.073,-4026.066,13348.812,-150,-136,45
24.550171,642,1923,-956,-177,-121,37,2314.049,8304.588,-4050.267,13330.782
24.570160,670,1929,-984,-150,-122,29,2314.489,8316.942,-4070.239,13316.914
24.590180,690,1932,-1118,-104,-92,19,2316.684,8323.561,-4082.273,13308.711
24.610199,654,1928,-1149,-50,-61,-10,2321.361,8325.812,-4085.014,13305.646,-150,-136,45,28410
24.630219,655,1933,-1242,-18,-17,-31,2327.134,8321.244,-4080.760,13308.801,-142,-132,37
24.650208,602,1895,-1306,50,17,-36,2332.839,8308.346,-4066.029,13320.363
24.670258,568,1863,-1324,116,78,-56,2339.392,8289.820,-4040.105,13338.632
24.690216,527,1821,-1311,167,119,-73,2347.170,8264.237,-4007.743,13362.882
24.710236,510,1739,-1259,221,147,-74,2352.626,8232.884,-3971.748,13391.991
24.730255,438,1731,-1261,255,166,-55,2355.176,8198.691,-3935.531,13423.176,-149,-127,44
24.750275,425,1694,-1240,265,169,-38,2357.531,8164.846,-3900.898,13453.467
24.770264,445,1677,-1202,249,155,-38,2360.906,8134.467,-3871.242,13479.818
24.790283,436,1679,-1199,220,124,-32,2363.886,8107.857,-3848.702,13501.764
24.810272,487,1699,-1249,178,85,-17,2366.541,8085.019,-3833.899,13519.193
24.830292,499,1707,-1274,144,43,-4,2370.556,8066.232,-3827.593,13531.494,-150,-126,34
24.850311,516,1752,-1324,103,-2,-5,2374.822,8054.156,-3826.995,13538.107
24.870300,538,1788,-1271,48,-30,-5,2379.460,8049.591,-3832.161,13538.546
24.890320,551,1782,-1271,-16,-53,-3,2383.602,8051.003,-3841.416,13534.355
24.910340,559,1790,-1266,-48,-70,2,2387.567,8054.338,-3851.583,13528.780
24.930329,587,1783,-1210,-51,-62,-4,2392.071,8055.906,-3860.018,13524.647,-151,-127,19
24.950348,571,1781,-1192,-26,-59,-7,2397.020,8054.445,-3865.992,13522.934
24.970337,596,1778,-1220,-1,-41,-13,2401.437,8050.595,-3869.742,13523.370
24.990357,596,1757,-1238,12,-28,-10,2404.053,8044.403,-3870.713,13526.312
25.010376,594,1753,-1215,28,-4,0,2404.334,8037.299,-3868.536,13531.107
25.030396,590,1735,-1222,34,11,6,2402.599,8030.550,-3865.497,13536.290,-157,-117,13
25.050385,602,1745,-1241,28,23,8,2398.499,8025.843,-3861.946,13540.822
25.070404,625,1716,-1252,10,32,17,2391.144,8024.807,-3858.133,13543.823
25.090424,614,1735,-1207,-22,40,26,2381.892,8028.301,-3854.355,13544.458
25.110413,602,1751,-1240,-54,45,22,2371.472,8036.119,-3850.049,13542.875,-157,-117,13,28372
25.130432,599,1751,-1219,-74,52,19,2360.913,8045.821,-3844.249,13540.607,-153,-117,24
25.150421,584,1740,-1223,-79,62,12,2350.901,8055.191,-3837.703,13538.635
25.170441,573,1727,-1222,-70,61,9,2341.131,8063.349,-3829.206,13537.877
25.190460,580,1747,-1262,-61,71,5,2331.203,8070.776,-3819.456,13537.919
25.210449,602,1772,-1238,-54,83,7,2320.050,8076.545,-3807.849,13539.664
25.230469,600,1772,-1242,-40,93,10,2307.860,8081.185,-3794.802,13542.641,-146,-110,4
25.250488,599,1763,-1182,-32,101,14,2294.744,8085.069,-3781.645,13546.232
25.270477,613,1740,-1186,-32,105,19,2280.577,8090.283,-3769.480,13548.902
25.290497,584,1720,-1189,-44,103,25,2264.903,8097.141,-3757.583,13550.739
25.310486,614,1718,-1189,-57,109,28,2249.431,8105.740,-3746.039,13551.371
25.330506,600,1715,-1204,-67,101,23,2233.581,8115.774,-3734.290,13551.230,-155,-124,4
25.350525,588,1725,-1263,-78,109,23,2216.256,8127.096,-3720.358,13551.121
25.370514,621,1745,-1267,-88,125,20,2198.208,8139.020,-3705.448,13550.990
25.390564,584,1755,-1238,-83,130,22,2179.633,8149.210,-3688.873,13552.388
25.410553,582,1747,-1225,-65,142,23,2160.890,8157.366,-3670.500,13555.471
25.430542,628,1748,-1261,-50,150,25,2141.627,8163.735,-3651.115,13559.928,-163,-113,-4
25.450562,610,1735,-1236,-43,159,24,2120.586,8168.830,-3629.103,13566.074
25.470581,596,1740,-1208,-28,176,29,2099.034,8171.546,-3605.825,13573.996
25.490570,558,1709,-1168,-11,187,33,2076.710,8172.377,-3580.905,13583.523
25.510590,592,1692,-1219,-1,191,35,2053.472,8173.840,-3555.815,13592.763
25.530609,594,1704,-1224,-14,199,40,2026.292,8177.807,-3528.748,13601.507,-159,-104,-4
25.550598,562,1740,-1269,-32,222,53,1996.319,8184.834,-3501.099,13608.855
25.570618,577,1766,-1280,-48,231,57,1965.029,8191.340,-3473.884,13616.467
25.590607,561,1756,-1259,-42,225,66,1934.041,8195.330,-3448.362,13624.987
25.610626,607,1729,-1309,-28,212,73,1905.012,8198.938,-3425.500,13632.671,-159,-104,-4,28388
25.630737,601,1757,-1357,-36,200,68,1875.029,8203.926,-3403.408,13639.359,-155,-110,-17
25.650635,636,1758,-1272,-48,194,72,1846.876,8208.828,-3383.771,13645.135
25.670654,636,1734,-1265,-44,174,71,1820.309,8212.565,-3366.248,13650.790
25.690674,672,1760,-1351,-35,164,70,1794.970,8215.244,-3349.898,13656.553
25.710663,727,1717,-1296,-31,156,61,1771.420,8217.130,-3334.633,13662.229
25.730683,722,1680,-1308,-26,142,57,1748.520,8217.463,-3319.557,13668.648,-160,-93,-26
25.750702,760,1641,-1297,-19,145,60,1725.263,8217.748,-3304.530,13675.072
25.770691,742,1633,-1270,-22,149,60,1698.175,8219.652,-3286.859,13681.576
25.790711,704,1654,-1212,-36,187,71,1664.956,8224.112,-3263.081,13688.668
25.810730,683,1639,-1237,-46,237,81,1627.322,8231.348,-3232.847,13696.016
25.830719,647,1616,-1189,-66,280,77,1585.850,8242.981,-3196.731,13702.361,-154,-92,-31
25.850739,665,1647,-1246,-92,315,75,1540.700,8257.626,-3156.101,13708.111
25.870728,632,1643,-1278,-96,345,79,1494.460,8271.388,-3112.871,13714.817
25.890747,644,1655,-1335,-89,361,74,1448.991,8284.996,-3069.529,13721.249
25.910767,609,1684,-1306,-97,350,69,1401.673,8298.795,-3025.384,13727.629
25.930756,643,1712,-1240,-98,355,87,1354.912,8312.383,-2984.539,13733.042,-162,-98,-30
25.950775,663,1744,-1236,-96,343,90,1307.089,8327.518,-2946.625,13736.695
25.970795,660,1793,-1179,-120,333,97,1254.975,8346.413,-2908.452,13738.223
25.990784,694,1825,-1154,-147,341,118,1201.825,8367.947,-2873.387,13737.254
26.010803,670,1837,-1198,-166,332,126,1147.553,8391.787,-2838.542,13734.596
26.030823,665,1838,-1292,-174,330,124,1095.466,8414.435,-2803.905,13732.108,-164,-91,-51
26.050842,723,1877,-1375,-158,320,113,1045.515,8434.342,-2768.047,13731.064
26.070831,614,1822,-1395,-148,323,104,998.403,8453.145,-2733.603,13729.908
26.090820,641,1746,-1339,-146,307,90,953.978,8472.093,-2701.227,13727.795
26.110840,566,1812,-1284,-139,267,85,911.147,8489.458,-2668.924,13726.296,-164,-91,-51,28425
26.130860,595,1791,-1171,-145,299,96,865.053,8502.966,-2636.698,13727.145,-169,-98,-51
26.150879,562,1772,-1058,-98,302,109,816.244,8514.270,-2601.534,13729.836
26.170868,582,1728,-1050,-83,327,114,767.842,8523.991,-2568.288,13732.856
26.190888,627,1700,-1077,-85,288,119,718.108,8534.789,-2537.148,13734.628
26.210877,681,1663,-1100,-105,309,138,666.252,8543.606,-2508.429,13737.034
26.230896,676,1624,-1150,-93,294,151,613.814,8552.213,-2480.781,13739.142,-168,-85,-59
26.250916,663,1591,-1265,-87,299,146,563.241,8559.487,-2450.829,13742.155
26.270905,612,1566,-1284,-82,302,133,511.272,8565.909,-2417.156,13746.148
26.290924,574,1607,-1283,-86,331,131,458.136,8573.727,-2380.849,13749.484
26.310944,521,1632,-1247,-89,349,135,399.764,8579.230,-2341.914,13754.558
26.330933,546,1737,-1238,-58,367,158,338.306,8580.415,-2303.138,13762.014,-180,-92,-66
26.350952,639,1813,-1194,-38,376,184,275.786,8581.436,-2267.507,13768.687
26.370941,664,1906,-1143,-62,344,189,208.959,8587.997,-2236.015,13770.923
26.390961,737,1922,-1074,-106,351,230,140.187,8596.636,-2215.434,13769.731
26.410980,813,1930,-1126,-105,272,257,72.518,8605.198,-2206.715,13766.305
26.430969,875,1844,-1137,-112,239,295,5.816,8611.409,-2199.794,13763.718,-170,-85,-79
26.450989,868,1747,-1186,-99,236,262,-49.759,8619.850,-2188.151,13760.201
26.471008,813,1655,-1320,-102,213,176,-94.933,8630.917,-2171.059,13755.733
26.490997,711,1598,-1292,-123,228,126,-142.394,8641.382,-2143.066,13753.143
26.511017,691,1548,-1246,-112,291,119,-188.773,8650.445,-2109.198,13752.123
26.531037,562,1581,-1241,-88,331,96,-237.614,8663.433,-2067.942,13749.455,-176,-86,-80
26.551026,513,1728,-1218,-132,350,99,-297.068,8680.701,-2026.237,13743.616
26.571045,481,1831,-998,-177,381,166,-367.259,8704.664,-1987.733,13732.381
26.591065,531,1863,-886,-238,389,222,-443.182,8734.169,-1953.464,13716.315
26.611054,594,1850,-690,-258,355,253,-516.866,8772.563,-1931.963,13692.258,-176,-86,-80,28369
26.631073,625,1885,-841,-315,271,258,-580.526,8811.105,-1927.430,13665.572,-162,-98,-71
26.651062,740,1962,-763,-319,132,282,-647.785,8838.381,-1936.716,13643.605
26.671082,752,1978,-944,-253,151,334,-710.845,8862.140,-1946.210,13623.688
26.691101,783,1936,-1099,-204,100,284,-750.901,8883.364,-1958.095,13606.002
26.711121,900,1861,-1141,-146,22,155,-772.213,8901.823,-1966.866,13591.472
26.731110,934,1874,-1115,-192,-9,95,-781.853,8929.394,-1987.173,13569.864,-172,-98,-62
26.751129,1022,1800,-951,-241,-119,72,-781.228,8955.406,-2013.229,13548.902
26.771118,887,1694,-811,-173,-144,29,-776.700,8980.300,-2032.505,13529.793
26.791138,781,1626,-796,-160,-110,4,-772.990,9002.819,-2047.385,13512.786
26.811157,842,1593,-689,-155,-72,15,-777.893,9026.192,-2055.048,13495.738
26.831177,782,1757,-693,-177,-6,25,-790.196,9049.210,-2049.572,13480.433,-170,-99,-61
26.851227,799,1870,-808,-155,111,11,-818.706,9062.606,-2025.389,13473.386
26.871185,702,2010,-868,-95,242,52,-858.049,9069.928,-1981.354,13472.558
26.891205,605,2052,-1063,-69,373,29,-902.950,9073.510,-1926.754,13475.131
26.911194,547,2119,-1208,-54,405,28,-943.084,9077.119,-1871.479,13477.741
26.931214,531,2141,-1224,-67,369,-3,-973.086,9085.054,-1821.886,13477.057,-163,-104,-54
26.951203,515,2121,-1147,-104,275,-32,-989.068,9098.526,-1784.035,13471.868
26.971222,476,1977,-966,-117,192,-59,-995.526,9108.722,-1753.069,13468.567
26.991242,381,1811,-859,-68,146,-79,-997.234,9110.381,-1721.641,13471.372
27.011231,409,1672,-771,3,153,-102,-991.943,9105.096,-1687.313,13479.677
27.031250,355,1524,-738,57,149,-153,-985.415,9096.605,-1649.044,13490.620,-159,-101,-57
27.051270,275,1566,-760,75,180,-156,-982.789,9085.520,-1603.841,13503.725
27.071259,369,1637,-754,80,223,-153,-983.340,9072.426,-1560.300,13517.582
27.091278,388,1787,-979,73,217,-113,-989.916,9063.156,-1522.674,13527.608
27.111298,356,1965,-1062,51,202,-64,-1000.905,9052.237,-1483.450,13538.463,-159,-101,-57,28400
27.131287,360,2097,-1049,53,226,-58,-1012.316,9044.735,-1449.475,13546.307,-169,-93,-58
27.151306,382,2231,-1028,24,183,-57,-1015.715,9045.096,-1420.099,13548.923
27.171326,372,2356,-1006,-36,114,-72,-1012.230,9056.912,-1401.925,13543.182
27.191315,363,2354,-875,-135,29,-68,-997.182,9077.991,-1396.143,13530.777
27.211304,417,2229,-840,-125,-87,-106,-964.657,9098.854,-1407.304,13517.959
27.231354,376,2096,-898,-97,-202,-119,-923.253,9113.025,-1427.979,13509.134,-167,-86,-78
27.251343,420,2024,-867,-41,-262,-136,-878.025,9117.863,-1453.535,13506.158
27.271332,440,1939,-896,18,-269,-129,-831.821,9114.800,-1480.915,13508.176
27.291351,427,1845,-932,70,-278,-129,-785.874,9106.888,-1509.590,13513.088
27.311371,434,1785,-1033,73,-275,-127,-741.660,9097.681,-1536.024,13518.809
27.331360,409,1753,-1110,84,-259,-116,-698.474,9087.180,-1559.481,13525.485,-170,-75,-75
27.351410,428,1683,-1066,87,-221,-137,-658.912,9075.970,-1573.681,13533.350
27.371399,410,1709,-986,73,-169,-139,-620.421,9068.156,-1581.040,13539.548
27.391419,315,1736,-933,52,-135,-160,-592.419,9061.141,-1581.737,13545.416
27.411408,287,1760,-915,59,-63,-114,-572.845,9050.795,-1574.857,13553.974
27.431427,203,1800,-1010,90,-6,-107,-554.610,9038.208,-1563.676,13564.422,-176,-69,-76
27.451416,300,1753,-951,92,7,-121,-533.863,9026.128,-1551.267,13574.719
27.471436,218,1824,-945,76,-27,-129,-508.295,9020.298,-1542.466,13580.578
27.491455,247,1803,-818,46,-35,-150,-481.663,9015.235,-1537.066,13585.521
27.511444,316,1767,-861,54,-82,-134,-447.954,9006.856,-1543.411,13591.512
27.531464,397,1807,-826,76,-160,-123,-414.166,9001.540,-1558.972,13594.329,-182,-78,-75
27.551483,484,1853,-899,44,-170,-115,-381.760,9000.970,-1570.093,13594.375
27.571472,364,1910,-932,5,-158,-115,-352.124,9003.758,-1577.921,13592.423
27.591492,435,1909,-1021,-20,-111,-124,-323.281,9010.167,-1583.569,13588.235
27.611511,307,2052,-1093,-37,-119,-145,-297.021,9017.201,-1573.604,13585.325,-182,-78,-75,28382
27.631500,250,2156,-1158,-31,11,-156,-280.849,9024.405,-1551.651,13583.411,-180,-59,-86
27.651520,194,2154,-1114,-53,61,-150,-274.633,9032.111,-1516.107,13582.430
27.671509,62,2245,-1115,-58,169,-132,-269.850,9043.804,-1472.095,13579.586
27.691528,10,2181,-1056,-73,186,-164,-263.479,9053.446,-1428.175,13577.977
27.711548,104,2043,-980,-53,175,-164,-257.927,9061.565,-1384.968,13577.143
27.731568,-5,2024,-885,-49,171,-159,-250.154,9068.668,-1340.605,13576.998,-180,-47,-86
27.751557,-28,1956,-784,-25,181,-171,-240.079,9070.743,-1299.336,13579.807
27.771576,-57,1837,-889,6,148,-164,-227.374,9064.540,-1263.484,13587.548
27.791565,-40,1752,-860,63,106,-142,-213.753,9051.375,-1242.695,13598.458
27.811585,-100,1740,-894,105,72,-109,-206.008,9039.377,-1227.042,13607.976
27.831604,-48,1792,-976,62,24,-51,-201.830,9032.356,-1223.456,13613.023,-188,-50,-94
27.851593,-19,1957,-944,24,-20,10,-199.852,9032.344,-1227.776,13612.671
27.871613,32,2033,-913,-22,-44,6,-193.136,9036.371,-1239.495,13609.033
27.891632,138,2002,-823,-12,-117,21,-177.590,9035.105,-1265.244,13607.715
27.911621,252,1927,-731,19,-205,8,-155.050,9032.067,-1298.484,13606.877
27.931641,124,1948,-706,24,-241,3,-129.164,9025.991,-1332.026,13607.937,-196,-44,-91
27.951660,69,1992,-777,65,-247,-13,-99.524,9017.802,-1366.797,13610.167
27.971649,60,2032,-884,70,-261,-33,-65.406,9004.413,-1399.532,13615.910
27.991669,-35,2042,-1021,104,-258,-44,-31.998,8986.841,-1430.604,13624.407
28.011688,9,2041,-1158,140,-254,-36,0.148,8964.014,-1464.920,13635.831
28.031677,107,2001,-1255,151,-267,-18,33.458,8939.652,-1502.116,13647.732,-189,-44,-77
28.051697,185,1941,-1196,150,-289,-15,66.976,8918.126,-1539.957,13657.471
28.071777,206,1940,-1015,116,-288,-29,98.705,8905.204,-1576.792,13661.507
28.091705,257,1926,-873,65,-265,-23,124.622,8898.197,-1614.071,13661.507
28.111725,271,1942,-847,45,-256,15,147.884,8891.967,-1655.107,13660.421,-189,-44,-77,28406
28.131714,281,2007,-754,31,-300,36,173.600,8887.730,-1704.489,13656.803,-187,-44,-84
28.151734,400,2004,-820,23,-324,32,199.852,8880.943,-1760.811,13653.714
28.171753,342,2026,-822,62,-364,54,223.373,8870.384,-1816.013,13652.982
28.191773,370,2021,-921,64,-329,73,247.141,8859.827,-1874.796,13651.482
28.211762,420,1949,-957,51,-362,72,273.240,8848.641,-1932.386,13650.209
28.231781,429,1895,-966,52,-359,53,300.369,8843.025,-1987.712,13645.333,-177,-56,-82
28.251770,465,1911,-930,1,-342,38,326.231,8843.699,-2039.260,13636.694
28.271790,450,1947,-763,-41,-316,29,347.642,8850.802,-2082.474,13625.020
28.291779,357,1974,-728,-67,-263,22,368.358,8858.261,-2119.889,13613.854
28.311798,434,1989,-764,-40,-240,-7,390.567,8861.767,-2143.860,13607.198
28.331818,273,2015,-831,-24,-168,-31,407.421,8860.432,-2159.651,13605.076,-182,-61,-66
28.351837,189,1985,-916,24,-101,-31,425.250,8855.099,-2166.424,13606.925
28.371826,156,1933,-1020,60,-96,-66,448.813,8844.787,-2172.225,13611.950
28.391937,132,1898,-989,85,-95,-85,473.512,8834.729,-2173.168,13617.493
28.411835,133,1783,-868,66,-77,-97,496.684,8826.796,-2172.339,13621.944
28.431854,78,1730,-853,57,-67,-95,517.005,8816.476,-2174.757,13627.484,-188,-60,-55
28.451874,124,1755,-843,83,-84,-53,536.958,8804.801,-2186.137,13632.439
28.471863,161,1829,-834,68,-149,-33,561.279,8793.816,-2208.935,13634.875
28.491882,219,1931,-852,68,-201,-30,588.074,8784.774,-2243.692,13633.899
28.511871,388,2030,-866,36,-309,11,621.148,8775.891,-2298.657,13628.996
28.531891,531,2191,-976,42,-390,33,653.624,8761.234,-2367.343,13625.148,-180,-54,-61
28.551911,667,2326,-1053,76,-466,88,692.070,8744.350,-2450.561,13619.382
28.571930,785,2357,-1137,63,-536,67,733.595,8731.191,-2528.295,13611.440
28.591919,695,2094,-1125,45,-479,17,783.202,8719.318,-2585.727,13605.497
28.611939,552,1855,-895,68,-421,-92,845.790,8711.730,-2629.751,13598.170,-180,-54,-61,28394
28.631958,363,1866,-812,42,-391,-224,910.113,8711.179,-2660.939,13588.300,-183,-60,-60
28.651947,413,1911,-744,30,-338,-205,965.152,8711.157,-2688.712,13579.046
28.671967,346,1943,-594,7,-276,-162,997.314,8709.459,-2703.174,13574.939
28.691986,353,1923,-634,60,-117,-61,1010.639,8700.764,-2708.194,13578.528
28.711975,315,2039,-673,79,-3,-41,1011.921,8698.563,-2692.617,13582.940
28.731995,218,1930,-623,3,55,-43,1008.589,8693.996,-2671.708,13590.239,-172,-50,-42
28.752014,149,1874,-767,69,120,-38,1008.734,8685.931,-2649.472,13599.735
28.772003,111,1817,-916,80,91,-58,1017.457,8676.007,-2635.832,13608.068
28.791992,-6,1813,-979,90,8,-55,1029.966,8663.070,-2624.967,13617.466
28.812012,120,1877,-1044,94,22,-82,1049.351,8655.247,-2621.192,13621.687
28.832031,187,1853,-956,66,-93,-76,1078.991,8643.508,-2625.010,13626.089,-173,-63,-41
28.852020,256,1930,-953,82,-119,-104,1109.595,8633.618,-2639.256,13627.149
28.872040,378,2037,-909,67,-208,-78,1140.922,8622.242,-2667.089,13626.346
28.892059,407,2091,-793,63,-247,-32,1169.626,8608.601,-2701.391,13625.780
28.912079,447,2105,-800,83,-273,-11,1206.094,8590.312,-2743.951,13625.639
28.932068,471,2121,-858,133,-332,-46,1254.454,8565.160,-2788.842,13627.992,-174,-57,-42
28.952088,569,2065,-937,177,-393,-84,1312.028,8535.168,-2834.607,13631.945
28.972077,591,2013,-881,198,-385,-120,1369.973,8507.003,-2870.499,13636.339
28.992096,481,1916,-776,193,-333,-159,1423.794,8482.222,-2898.743,13640.288
29.012116,450,1828,-817,170,-292,-129,1470.544,8458.894,-2928.093,13643.545
29.032105,387,1747,-844,142,-260,-107,1502.996,8439.968,-2946.850,13647.690,-177,-54,-45
29.052124,283,1860,-886,110,-145,-64,1520.385,8430.500,-2951.341,13650.645
29.072144,287,2019,-874,31,-33,-56,1526.683,8434.861,-2944.270,13648.775
29.092163,263,2159,-958,-42,35,-48,1525.684,8445.547,-2927.768,13645.828
29.112152,235,2110,-944,-46,97,-46,1521.052,8454.077,-2906.208,13645.672,-177,-54,-45,28384
29.132172,206,2035,-848,-30,128,-46,1517.214,8461.906,-2881.907,13646.400,-179,-60,-46
29.152161,89,1885,-794,-21,118,-60,1519.733,8469.388,-2860.494,13645.984
29.172180,87,1813,-752,-20,75,-75,1529.287,8476.937,-2845.194,13643.428
29.192200,10,1844,-735,-28,23,-103,1544.919,8482.271,-2836.471,13640.167
29.212189,76,1862,-731,8,-40,-85,1567.143,8475.983,-2844.169,13639.938
29.232208,215,1918,-905,75,-148,-52,1593.938,8462.028,-2868.868,13640.325,-174,-60,-42
29.252228,245,2017,-966,74,-239,-10,1618.701,8448.181,-2905.248,13638.292
29.272217,304,2176,-995,39,-270,22,1642.191,8438.133,-2951.140,13631.850
29.292298,399,2171,-906,22,-328,31,1674.808,8426.259,-3004.820,13623.497
29.312225,555,2096,-885,44,-397,9,1717.104,8411.923,-3064.714,13613.745
29.332245,572,1976,-800,67,-445,-26,1767.459,8390.959,-3124.759,13606.587,-183,-50,-46
29.352265,425,1877,-697,106,-436,-61,1815.473,8367.436,-3174.427,13603.254
29.372254,362,1813,-674,134,-383,-60,1862.679,8338.428,-3220.301,13603.901
29.392334,274,1850,-764,185,-362,-56,1905.961,8309.389,-3261.223,13605.926
29.412293,307,1839,-871,158,-322,-43,1942.999,8284.447,-3297.793,13607.082
29.432282,459,1821,-1058,118,-288,-31,1972.764,8267.114,-3329.298,13605.669,-174,-53,-44
29.452301,427,1940,-1120,66,-226,-23,1993.167,8257.361,-3353.820,13602.595
29.472290,494,1873,-1047,23,-164,-9,2007.929,8250.633,-3374.507,13599.390
29.492340,450,1754,-942,22,-151,-16,2024.590,8244.288,-3388.811,13597.211
29.512329,356,1738,-957,24,-114,-40,2043.174,8241.781,-3397.411,13593.804
29.532349,369,1709,-809,3,-90,-82,2061.165,8242.583,-3399.098,13590.180,-180,-56,-27
29.552338,198,1875,-726,-1,-54,-88,2073.083,8245.665,-3391.157,13588.481
29.572357,243,1916,-690,1,25,-57,2075.175,8243.964,-3384.770,13590.786
29.592346,283,1980,-720,28,18,-4,2074.985,8242.154,-3382.431,13592.495
29.612366,318,2075,-848,11,5,17,2070.537,8246.129,-3388.871,13589.158,-180,-56,-27,28361
29.632385,360,2109,-897,-51,-33,46,2066.455,8254.159,-3401.314,13581.793,-172,-50,-39
29.652374,241,2199,-892,-68,-64,42,2068.409,8261.423,-3416.425,13573.284
29.672394,312,2208,-823,-64,-104,22,2080.504,8265.179,-3440.508,13563.062
29.692383,367,2093,-818,-39,-199,-8,2102.997,8264.857,-3472.743,13551.569
29.712402,420,1945,-835,-10,-252,-13,2129.290,8259.007,-3509.042,13541.676
29.732422,324,1897,-849,16,-270,-17,2157.244,8246.947,-3543.954,13535.508,-164,-57,-35
29.752411,218,1824,-938,73,-256,-12,2188.212,8227.816,-3577.754,13533.287
29.772431,139,1761,-990,130,-284,-31,2224.837,8200.168,-3608.363,13535.970
29.792450,148,1666,-922,157,-275,-45,2265.587,8171.809,-3637.143,13538.658
29.812470,269,1602,-965,152,-291,-66,2306.340,8141.726,-3671.193,13540.712
29.832459,418,1548,-897,169,-296,-30,2337.767,8109.461,-3709.693,13544.191,-172,-46,-21
29.852448,462,1645,-829,149,-293,23,2361.384,8080.535,-3749.159,13546.515
29.872498,488,1661,-747,128,-274,52,2383.586,8052.868,-3793.750,13546.687
29.892487,610,1686,-788,115,-303,50,2405.324,8026.819,-3841.771,13544.771
29.912567,554,1725,-767,86,-316,74,2422.081,8006.474,-3889.302,13540.261
29.932495,723,1910,-967,55,-274,79,2431.876,7993.460,-3938.208,13532.055,-173,-63,-20
29.952515,757,2102,-976,-5,-276,94,2436.045,7992.992,-3985.797,13517.641
29.972534,688,2221,-1020,-117,-245,98,2434.608,8003.819,-4028.867,13498.712
29.992523,798,2158,-1065,-146,-204,82,2437.513,8014.172,-4067.022,13480.591
30.012573,732,2050,-1176,-115,-212,46,2448.860,8023.044,-4102.123,13462.610
30.032562,700,2080,-972,-97,-209,-11,2463.458,8029.106,-4127.445,13448.585
30.052551,635,1977,-755,-94,-170,-24,2480.610,8038.053,-4149.847,13433.185,-167,-60,-26
30.072571,607,1886,-706,-60,-165,-64,2496.468,8041.766,-4169.854,13421.825
30.092560,593,1710,-763,-24,-143,-10,2501.946,8041.905,-4184.179,13416.263
30.112641,468,1679,-771,-21,-66,12,2503.689,8042.104,-4188.382,13414.506,-167,-60,-26,28378
30.132569,438,1535,-671,2,-9,-6,2504.692,8036.776,-4189.003,13417.318
30.152588,390,1436,-682,55,-3,15,2506.425,8024.772,-4186.544,13424.945,-161,-68,-25
30.172608,410,1387,-731,90,9,7,2505.517,8013.106,-4184.449,13432.734
30.192627,387,1432,-709,56,23,33,2497.166,8008.478,-4180.407,13438.306
30.212616,445,1493,-651,11,51,44,2484.525,8009.002,-4178.565,13440.909
30.232636,528,1601,-773,-22,38,65,2471.836,8014.290,-4182.656,13438.825
30.252625,563,1740,-816,-59,9,59,2456.594,8023.592,-4187.496,13434.561,-160,-55,-7
30.272644,568,1950,-953,-105,24,69,2439.270,8037.477,-4197.149,13426.403
30.292664,674,2111,-1074,-144,-25,91,2424.552,8056.523,-4220.492,13410.326
30.312714,587,2300,-1168,-203,-93,90,2413.616,8082.672,-4251.501,13386.748
30.332672,761,2493,-1034,-252,-161,79,2409.186,8111.135,-4290.687,13357.797
30.352692,794,2460,-955,-249,-194,54,2415.689,8135.942,-4324.836,13330.496,-159,-54,0
30.372681,642,2117,-856,-176,-204,-25,2440.929,8143.428,-4353.839,13311.873
30.392761,788,1918,-888,-31,-259,-82,2481.555,8134.344,-4389.707,13298.129
30.412720,723,1792,-767,73,-309,-94,2521.136,8116.287,-4419.042,13292.000
30.432739,737,1755,-721,101,-261,-72,2555.188,8098.954,-4447.727,13286.501
30.452728,761,1626,-617,86,-243,-58,2581.531,8082.868,-4468.589,13284.204,-163,-66,-9
30.472717,673,1532,-650,105,-145,-47,2599.630,8066.461,-4473.910,13288.856
30.492737,593,1459,-599,115,-48,-47,2609.453,8056.032,-4469.956,13294.586
30.512848,481,1505,-640,58,32,-46,2606.821,8061.179,-4454.802,13297.069
30.532776,488,1601,-622,-41,118,-37,2596.529,8077.805,-4430.497,13297.114
30.552765,409,1713,-677,-86,177,-47,2579.421,8101.527,-4396.560,13297.275,-153,-69,-5
30.572785,398,1853,-760,-102,260,-52,2555.208,8124.693,-4353.900,13301.851
30.592804,356,1971,-787,-89,298,-19,2529.529,8145.495,-4311.758,13307.763
