;Title, http://www.gcdataconcepts.com, HAM-IMU, MPU-9250,,,,,,,,,,,,
;Version,1191, Build date, Nov 15 2016,  SN:CCDC3016FE411C6,,,,,,,,,,,
;Start_time, 2007-01-06, 01:28:54.516,2007-01-06 01:28:54.516,,,,,,,,,,,,
;Temperature,-999, deg C,  Vbat,3958, mv,,,,,,,,,,
;MPU SR,200,Hz,  Accel sens,2048,counts/g, Gyro sens,16,counts/dps,  Mag SR,10,Hz,  Mag sens,1666,counts/mT,
;Deadband,0, counts,,,,,,,,,,,,,
;DeadbandTimeout,5,sec,,,,,,,,,,,,,
;Time, Ax, Ay, Az, Gx, Gy, Gz, Qw, Qx, Qy, Qz, Mx, My, Mz, T,Date Time
0.001587,-2084,120,-129,0,0,0,11835.865,11118.152,1098.437,1878.259,,,,,2007-01-06 01:28:54.518
0.016235,-2069,145,-165,-1,-2,0,11835.821,11118.169,1098.398,1878.461,,,,,2007-01-06 01:28:54.532
0.036255,-2059,123,-172,-1,-1,-3,11835.774,11118.208,1098.487,1878.471,,,,,2007-01-06 01:28:54.552
0.056274,-2080,120,-159,2,0,1,11835.761,11118.244,1098.325,1878.434,-820,-1135,4,34173,2007-01-06 01:28:54.572
0.076294,-2077,120,-170,-1,0,-2,11835.686,11118.344,1098.276,1878.343,,,,,2007-01-06 01:28:54.592
0.096283,-2075,121,-175,-2,-1,1,11835.709,11118.297,1098.057,1878.608,,,,,2007-01-06 01:28:54.612
0.116302,-2065,124,-139,-3,-1,3,11835.801,11118.203,1098.058,1878.588,,,,,2007-01-06 01:28:54.632
0.136322,-2077,116,-134,-2,-1,0,11835.77,11118.21,1098.091,1878.716,,,,,2007-01-06 01:28:54.652
0.156341,-2057,117,-163,0,0,0,11835.697,11118.294,1098.12,1878.666,-822,-1140,3,,2007-01-06 01:28:54.672
0.17633,-2076,118,-140,0,2,-1,11835.817,11118.138,1098.116,1878.838,,,,,2007-01-06 01:28:54.692
0.19635,-2058,117,-141,0,0,-1,11835.798,11118.164,1098.135,1878.79,,,,,2007-01-06 01:28:54.712
0.216369,-2069,125,-157,-1,-2,-1,11835.75,11118.185,1098.242,1878.902,,,,,2007-01-06 01:28:54.732
0.236389,-2052,115,-136,0,0,-1,11835.807,11118.089,1098.285,1879.086,,,,,2007-01-06 01:28:54.752
0.256378,-2051,119,-146,-1,-1,1,11835.779,11118.118,1098.376,1879.036,-816,-1139,-1,,2007-01-06 01:28:54.772
0.276397,-2059,117,-158,0,0,-1,11835.837,11118.019,1098.368,1879.269,,,,,2007-01-06 01:28:54.792
0.296417,-2088,131,-144,-1,-3,0,11835.954,11117.925,1098.173,1879.193,,,,,2007-01-06 01:28:54.812
0.316437,-2052,116,-122,-2,-1,-2,11835.861,11118.036,1098.148,1879.141,,,,,2007-01-06 01:28:54.832
0.336426,-2078,131,-176,-1,0,0,11835.797,11118.076,1098.129,1879.321,,,,,2007-01-06 01:28:54.852
0.356445,-2066,116,-158,1,0,1,11835.733,11118.119,1098.163,1879.445,-819,-1119,10,,2007-01-06 01:28:54.872
0.376465,-2066,109,-159,0,0,-1,11835.696,11118.174,1098.075,1879.401,,,,,2007-01-06 01:28:54.892
0.396484,-2064,114,-170,-2,-1,1,11835.768,11118.109,1098.03,1879.363,,,,,2007-01-06 01:28:54.912
0.416473,-2075,105,-158,-1,-1,-3,11835.875,11117.986,1097.966,1879.453,,,,,2007-01-06 01:28:54.932
0.436493,-2062,127,-157,-1,-1,1,11835.92,11117.921,1098.097,1879.478,,,,,2007-01-06 01:28:54.952
0.456512,-2077,118,-156,-1,0,0,11836.03,11117.791,1098.268,1879.455,-823,-1116,6,,2007-01-06 01:28:54.973
0.476532,-2080,135,-169,-1,-1,-2,11836.077,11117.737,1098.156,1879.546,,,,,2007-01-06 01:28:54.993
0.496521,-2070,115,-131,-2,-1,-1,11836.075,11117.723,1098.296,1879.563,,,,,2007-01-06 01:28:55.013
0.51654,-2071,127,-125,1,0,-1,11835.986,11117.844,1098.453,1879.31,,,,,2007-01-06 01:28:55.033
0.53656,-2063,118,-185,-1,-1,-2,11835.849,11117.991,1098.277,1879.41,,,,,2007-01-06 01:28:55.053
0.556579,-2095,118,-159,0,0,2,11835.846,11118.024,1098.245,1879.246,-823,-1116,6,34189,2007-01-06 01:28:55.073
0.576568,-2063,127,-143,-2,-1,1,11835.771,11118.088,1098.275,1879.326,,,,,2007-01-06 01:28:55.093
0.596649,-2063,131,-144,1,0,-1,11835.826,11118.031,1098.24,1879.337,,,,,2007-01-06 01:28:55.113
0.616577,-2073,139,-144,-1,-2,-4,11835.841,11118.018,1098.357,1879.246,,,,,2007-01-06 01:28:55.133
0.636596,-2070,128,-139,-1,-1,-2,11835.907,11117.955,1098.235,1879.277,,,,,2007-01-06 01:28:55.153
0.656616,-2069,135,-162,-2,-2,0,11835.828,11118.02,1098.211,1879.408,-816,-1137,-1,,2007-01-06 01:28:55.173
0.676636,-2066,133,-155,1,1,0,11835.84,11117.966,1098.294,1879.599,,,,,2007-01-06 01:28:55.193
0.696655,-2073,130,-130,-2,-2,-1,11835.77,11118.041,1098.112,1879.704,,,,,2007-01-06 01:28:55.213
0.716675,-2068,115,-155,1,0,-2,11835.808,11117.987,1098.14,1879.77,,,,,2007-01-06 01:28:55.233
0.736664,-2076,114,-122,-2,-1,0,11835.881,11117.969,1098.051,1879.469,,,,,2007-01-06 01:28:55.253
0.756683,-2086,119,-158,-2,-1,0,11835.815,11118.009,1098.15,1879.592,-823,-1125,2,,2007-01-06 01:28:55.273
0.776703,-2049,109,-129,-1,-1,1,11835.777,11118.055,1098.038,1879.625,,,,,2007-01-06 01:28:55.293
0.796692,-2081,124,-136,-2,-1,0,11835.76,11118.091,1098.105,1879.473,,,,,2007-01-06 01:28:55.313
0.816711,-2088,102,-142,-1,-2,-2,11835.728,11118.124,1097.891,1879.604,,,,,2007-01-06 01:28:55.333
0.836731,-2075,119,-159,-2,-1,2,11835.745,11118.077,1097.867,1879.793,,,,,2007-01-06 01:28:55.353
0.85675,-2073,125,-148,-1,-1,-2,11835.748,11118.071,1097.898,1879.795,-823,-1125,6,,2007-01-06 01:28:55.373
0.876739,-2066,148,-125,-1,-1,1,11835.8,11117.99,1097.783,1880.012,,,,,2007-01-06 01:28:55.393
0.896759,-2069,119,-172,0,0,1,11835.736,11118.054,1097.685,1880.089,,,,,2007-01-06 01:28:55.413
0.916778,-2076,126,-131,-1,0,-1,11835.793,11118.014,1097.749,1879.933,,,,,2007-01-06 01:28:55.433
0.936798,-2068,119,-152,-1,-2,-2,11835.76,11118.071,1097.69,1879.839,,,,,2007-01-06 01:28:55.453
0.956787,-2085,119,-131,0,-1,-1,11835.864,11117.953,1097.82,1879.801,-813,-1135,6,,2007-01-06 01:28:55.473
0.976806,-2063,115,-125,-1,-1,0,11835.904,11117.912,1097.765,1879.83,,,,,2007-01-06 01:28:55.493
0.996826,-2071,127,-140,-2,-1,0,11835.802,11118.006,1097.814,1879.883,,,,,2007-01-06 01:28:55.513
1.016815,-2051,135,-135,-1,-1,0,11835.757,11118.06,1097.854,1879.824,,,,,2007-01-06 01:28:55.533
1.036835,-2068,126,-158,-1,-1,-1,11835.701,11118.107,1098.057,1879.777,,,,,2007-01-06 01:28:55.553
1.056854,-2071,105,-146,0,0,-3,11835.711,11118.093,1098.08,1879.791,-819,-1131,12,34160,2007-01-06 01:28:55.573
1.076874,-2070,118,-148,0,0,-1,11835.536,11118.279,1098.056,1879.808,,,,,2007-01-06 01:28:55.593
1.096893,-2073,125,-149,0,1,2,11835.594,11118.186,1098.276,1879.864,,,,,2007-01-06 01:28:55.613
1.116913,-2070,115,-148,1,0,-1,11835.565,11118.196,1098.255,1879.992,,,,,2007-01-06 01:28:55.633
1.136902,-2076,119,-151,1,0,0,11835.47,11118.273,1098.184,1880.177,,,,,2007-01-06 01:28:55.653
1.156921,-2076,115,-133,-1,-1,1,11835.374,11118.36,1098.363,1880.163,-824,-1129,0,,2007-01-06 01:28:55.673
1.176941,-2067,122,-137,-1,-1,-2,11835.343,11118.39,1098.543,1880.077,,,,,2007-01-06 01:28:55.693
1.19696,-2072,126,-167,-1,-1,-2,11835.343,11118.391,1098.484,1880.108,,,,,2007-01-06 01:28:55.713
1.216949,-2083,125,-147,0,0,-2,11835.376,11118.335,1098.567,1880.18,,,,,2007-01-06 01:28:55.733
1.236969,-2062,124,-128,0,-1,-1,11835.312,11118.437,1098.422,1880.065,,,,,2007-01-06 01:28:55.753
1.256988,-2077,140,-170,-2,-1,-1,11835.222,11118.543,1098.224,1880.121,-824,-1131,7,,2007-01-06 01:28:55.773
1.277008,-2077,112,-154,0,1,1,11835.156,11118.63,1097.986,1880.164,,,,,2007-01-06 01:28:55.793
1.296997,-2076,129,-147,0,0,2,11835.183,11118.604,1097.842,1880.233,,,,,2007-01-06 01:28:55.813
1.317016,-2058,101,-165,-2,0,0,11835.343,11118.447,1097.699,1880.23,,,,,2007-01-06 01:28:55.833
1.337036,-2062,127,-181,-2,-2,-1,11835.399,11118.379,1097.802,1880.223,,,,,2007-01-06 01:28:55.853
1.357025,-2064,127,-123,1,-2,0,11835.358,11118.45,1097.696,1880.124,-813,-1123,4,,2007-01-06 01:28:55.873
1.377044,-2062,119,-114,-2,0,-2,11835.251,11118.594,1097.502,1880.055,,,,,2007-01-06 01:28:55.893
1.397064,-2061,122,-119,-2,-1,0,11835.293,11118.587,1097.51,1879.831,,,,,2007-01-06 01:28:55.913
1.417053,-2062,107,-137,-2,-1,-2,11835.318,11118.57,1097.576,1879.734,,,,,2007-01-06 01:28:55.933
1.437073,-2067,122,-147,1,0,1,11835.263,11118.629,1097.528,1879.766,,,,,2007-01-06 01:28:55.953
1.457092,-2064,115,-184,-2,-2,0,11835.283,11118.6,1097.643,1879.737,-819,-1138,10,,2007-01-06 01:28:55.973
1.477112,-2072,117,-140,-1,-2,-1,11835.401,11118.509,1097.64,1879.532,,,,,2007-01-06 01:28:55.993
1.497131,-2090,140,-120,-1,-2,-2,11835.41,11118.532,1097.466,1879.445,,,,,2007-01-06 01:28:56.013
1.51712,-2070,104,-138,-2,0,0,11835.317,11118.634,1097.319,1879.516,,,,,2007-01-06 01:28:56.033
1.53714,-2060,138,-145,-1,-1,2,11835.122,11118.813,1097.343,1879.668,,,,,2007-01-06 01:28:56.053
1.557159,-2067,120,-155,-1,0,0,11835.129,11118.831,1097.354,1879.506,-823,-1130,4,34164,2007-01-06 01:28:56.073
1.577179,-2066,113,-148,-3,-2,-2,11835.054,11118.91,1097.558,1879.398,,,,,2007-01-06 01:28:56.093
1.597168,-2072,129,-139,0,0,-2,11834.971,11119,1097.533,1879.402,,,,,2007-01-06 01:28:56.113
1.617187,-2083,131,-125,-2,-1,0,11835.03,11118.919,1097.653,1879.438,,,,,2007-01-06 01:28:56.133
1.637207,-2076,125,-154,1,0,-1,11835.032,11118.895,1097.721,1879.528,,,,,2007-01-06 01:28:56.153
1.657196,-2067,121,-167,-1,-1,0,11834.991,11118.891,1097.724,1879.813,-826,-1131,3,,2007-01-06 01:28:56.173
1.677215,-2067,129,-150,-1,-1,0,11834.862,11119.042,1097.604,1879.801,,,,,2007-01-06 01:28:56.193
1.697235,-2062,114,-151,-1,0,-1,11834.8,11119.078,1097.59,1879.986,,,,,2007-01-06 01:28:56.213
1.717254,-2051,122,-148,-1,-1,1,11834.705,11119.192,1097.32,1880.065,,,,,2007-01-06 01:28:56.233
1.737243,-2067,118,-154,-2,-1,0,11834.682,11119.226,1097.257,1880.047,,,,,2007-01-06 01:28:56.253
1.757293,-2067,119,-151,-2,0,1,11834.62,11119.302,1097.371,1879.917,-818,-1137,13,,2007-01-06 01:28:56.273
1.777283,-2078,128,-159,-1,0,-2,11834.773,11119.156,1097.374,1879.816,,,,,2007-01-06 01:28:56.293
1.797302,-2074,123,-129,-1,-1,0,11834.712,11119.231,1097.447,1879.717,,,,,2007-01-06 01:28:56.313
1.817383,-2073,124,-135,1,0,-1,11834.543,11119.414,1097.325,1879.767,,,,,2007-01-06 01:28:56.333
1.837311,-2076,127,-139,-1,1,-1,11834.493,11119.429,1097.446,1879.927,,,,,2007-01-06 01:28:56.353
1.85733,-2066,135,-148,1,0,0,11834.431,11119.485,1097.295,1880.071,-816,-1132,4,,2007-01-06 01:28:56.373
1.87735,-2086,119,-144,-1,-1,0,11834.529,11119.408,1097.171,1879.979,,,,,2007-01-06 01:28:56.393
1.897369,-2068,126,-149,-3,-1,-1,11834.45,11119.474,1097.143,1880.11,,,,,2007-01-06 01:28:56.413
1.917358,-2089,133,-148,1,0,1,11834.436,11119.486,1097.187,1880.098,,,,,2007-01-06 01:28:56.433
1.937378,-2068,115,-153,-1,-1,0,11834.476,11119.442,1097.253,1880.065,,,,,2007-01-06 01:28:56.453
1.957397,-2076,117,-160,-2,-1,0,11834.399,11119.533,1097.323,1879.975,-824,-1133,5,,2007-01-06 01:28:56.473
1.977386,-2090,110,-140,-1,0,0,11834.45,11119.442,1097.341,1880.181,,,,,2007-01-06 01:28:56.493
1.997406,-2060,131,-135,0,0,0,11834.388,11119.464,1097.542,1880.32,,,,,2007-01-06 01:28:56.513
2.017425,-2060,136,-161,2,-1,-1,11834.459,11119.392,1097.392,1880.386,,,,,2007-01-06 01:28:56.533
2.037445,-2080,120,-142,-3,-1,-1,11834.399,11119.448,1097.489,1880.38,,,,,2007-01-06 01:28:56.553
2.057434,-2091,114,-166,0,-1,-4,11834.433,11119.414,1097.447,1880.392,-816,-1132,8,34191,2007-01-06 01:28:56.573
2.077453,-2072,120,-142,-3,-1,-1,11834.478,11119.377,1097.417,1880.342,,,,,2007-01-06 01:28:56.593
2.097473,-2068,126,-169,-1,-2,-1,11834.483,11119.384,1097.506,1880.218,,,,,2007-01-06 01:28:56.613
2.117462,-2082,134,-158,-2,-3,-1,11834.494,11119.37,1097.285,1880.365,,,,,2007-01-06 01:28:56.633
2.137512,-2070,132,-146,0,0,0,11834.351,11119.531,1097.249,1880.328,,,,,2007-01-06 01:28:56.654
2.157501,-2071,132,-152,-1,-1,0,11834.311,11119.581,1097.017,1880.422,-822,-1122,-2,,2007-01-06 01:28:56.674
2.177521,-2058,113,-148,0,1,0,11834.453,11119.389,1097.234,1880.536,,,,,2007-01-06 01:28:56.694
2.19754,-2075,120,-117,-1,-2,-1,11834.531,11119.32,1097.086,1880.544,,,,,2007-01-06 01:28:56.714
2.21756,-2078,119,-156,-2,-1,0,11834.515,11119.375,1096.989,1880.371,,,,,2007-01-06 01:28:56.734
2.237549,-2054,123,-151,-3,-1,-2,11834.405,11119.5,1097.044,1880.298,,,,,2007-01-06 01:28:56.754
2.257568,-2063,110,-191,0,0,1,11834.349,11119.509,1097.18,1880.513,-820,-1130,13,,2007-01-06 01:28:56.774
2.277588,-2073,125,-136,1,0,-2,11834.445,11119.385,1097.258,1880.595,,,,,2007-01-06 01:28:56.794
2.297577,-2093,128,-135,0,-1,-2,11834.55,11119.268,1097.25,1880.632,,,,,2007-01-06 01:28:56.814
2.317596,-2072,131,-164,-2,-3,-2,11834.575,11119.226,1097.387,1880.647,,,,,2007-01-06 01:28:56.834
2.337616,-2077,122,-124,-2,-2,0,11834.654,11119.137,1097.263,1880.748,,,,,2007-01-06 01:28:56.854
2.357635,-2061,120,-129,-2,-1,0,11834.674,11119.102,1097.289,1880.814,-811,-1125,8,,2007-01-06 01:28:56.874
2.377624,-2053,125,-142,-1,-1,0,11834.622,11119.12,1097.179,1881.095,,,,,2007-01-06 01:28:56.894
2.397644,-2068,101,-163,0,0,1,11834.509,11119.251,1097.163,1881.037,,,,,2007-01-06 01:28:56.914
2.417663,-2080,123,-147,-2,-1,-2,11834.504,11119.268,1097.135,1880.985,,,,,2007-01-06 01:28:56.934
2.437652,-2060,112,-157,-2,-1,0,11834.545,11119.236,1097.084,1880.947,,,,,2007-01-06 01:28:56.954
2.457672,-2077,116,-144,-2,-1,0,11834.422,11119.377,1097.162,1880.847,-832,-1132,6,,2007-01-06 01:28:56.974
2.477691,-2060,123,-156,-1,-1,-1,11834.403,11119.384,1097.231,1880.883,,,,,2007-01-06 01:28:56.994
2.497711,-2071,127,-132,0,0,-2,11834.394,11119.408,1097.105,1880.872,,,,,2007-01-06 01:28:57.014
2.517731,-2056,111,-150,-2,-1,0,11834.283,11119.53,1096.981,1880.919,,,,,2007-01-06 01:28:57.034
2.53772,-2069,111,-150,-2,-1,-1,11834.236,11119.57,1096.948,1881.001,,,,,2007-01-06 01:28:57.054
2.55777,-2075,116,-146,1,0,1,11834.269,11119.547,1096.942,1880.925,-824,-1129,5,34152,2007-01-06 01:28:57.074
2.577759,-2067,126,-128,0,1,-1,11834.251,11119.545,1097.021,1881.01,,,,,2007-01-06 01:28:57.094
2.597748,-2071,91,-151,0,0,-1,11834.27,11119.511,1097.048,1881.072,,,,,2007-01-06 01:28:57.114
2.617767,-2055,103,-126,-2,-1,-2,11834.19,11119.582,1097.102,1881.125,,,,,2007-01-06 01:28:57.134
2.637787,-2075,124,-150,-2,-1,0,11834.164,11119.611,1097.065,1881.142,,,,,2007-01-06 01:28:57.154
2.657806,-2075,116,-149,-1,-1,0,11834.159,11119.608,1096.902,1881.285,-819,-1138,10,,2007-01-06 01:28:57.174
2.677795,-2069,144,-162,0,0,0,11834.101,11119.667,1096.721,1881.401,,,,,2007-01-06 01:28:57.194
2.697845,-2068,119,-178,-1,0,1,11834.063,11119.658,1096.84,1881.631,,,,,2007-01-06 01:28:57.214
2.717834,-2065,124,-154,-1,-1,1,11833.991,11119.714,1096.95,1881.686,,,,,2007-01-06 01:28:57.234
2.737854,-2060,126,-147,2,2,0,11833.944,11119.755,1097.061,1881.676,,,,,2007-01-06 01:28:57.254
2.757873,-2074,127,-148,0,0,-1,11834.023,11119.69,1097.227,1881.468,-819,-1131,7,,2007-01-06 01:28:57.274
2.777862,-2072,134,-131,-2,-1,-3,11834.056,11119.666,1097.041,1881.506,,,,,2007-01-06 01:28:57.294
2.797882,-2079,101,-137,-1,-1,0,11833.963,11119.773,1096.958,1881.508,,,,,2007-01-06 01:28:57.314
2.817901,-2065,138,-158,-2,0,0,11833.933,11119.825,1096.764,1881.502,,,,,2007-01-06 01:28:57.334
2.837921,-2048,115,-164,-2,-1,2,11833.973,11119.798,1096.638,1881.486,,,,,2007-01-06 01:28:57.354
2.85791,-2082,113,-117,0,1,-1,11834.041,11119.699,1096.655,1881.631,-820,-1125,4,,2007-01-06 01:28:57.374
2.877929,-2078,122,-133,-1,-2,0,11833.996,11119.757,1096.59,1881.613,,,,,2007-01-06 01:28:57.394
2.897949,-2077,115,-142,0,0,-1,11833.961,11119.793,1096.645,1881.59,,,,,2007-01-06 01:28:57.414
2.917938,-2079,114,-153,0,0,1,11833.909,11119.852,1096.671,1881.547,,,,,2007-01-06 01:28:57.434
2.937958,-2057,113,-148,-1,-1,-1,11833.902,11119.84,1096.656,1881.674,,,,,2007-01-06 01:28:57.454
2.957977,-2080,116,-144,0,-1,0,11833.778,11119.955,1096.692,1881.752,-825,-1137,8,,2007-01-06 01:28:57.474
2.977997,-2086,112,-172,0,1,0,11833.703,11120.034,1096.775,1881.71,,,,,2007-01-06 01:28:57.494
2.998016,-2077,112,-160,1,1,0,11833.592,11120.165,1096.779,1881.632,,,,,2007-01-06 01:28:57.514
3.018005,-2075,128,-159,-1,-1,-1,11833.443,11120.284,1096.794,1881.852,,,,,2007-01-06 01:28:57.534
3.038086,-2081,117,-169,0,0,-2,11833.379,11120.343,1096.889,1881.855,,,,,2007-01-06 01:28:57.554
3.058044,-2052,136,-168,0,0,1,11833.426,11120.324,1096.835,1881.706,-814,-1131,5,34160,2007-01-06 01:28:57.574
3.078064,-2069,108,-159,-1,-1,1,11833.394,11120.359,1096.805,1881.714,,,,,2007-01-06 01:28:57.594
3.098053,-2074,119,-152,-2,-1,-1,11833.264,11120.486,1096.891,1881.729,,,,,2007-01-06 01:28:57.614
3.118072,-2062,130,-120,2,0,-1,11833.194,11120.557,1096.933,1881.728,,,,,2007-01-06 01:28:57.634
3.138092,-2069,123,-163,2,0,-2,11833.325,11120.418,1097,1881.684,,,,,2007-01-06 01:28:57.654
3.158081,-2059,120,-154,1,0,-1,11833.273,11120.491,1096.908,1881.639,-820,-1142,-3,,2007-01-06 01:28:57.674
3.1781,-2067,123,-140,-2,-1,0,11833.197,11120.557,1096.821,1881.772,,,,,2007-01-06 01:28:57.694
3.19812,-2070,118,-139,-1,-1,-1,11833.282,11120.463,1096.845,1881.786,,,,,2007-01-06 01:28:57.714
3.218139,-2060,133,-170,-1,-1,-1,11833.362,11120.38,1096.819,1881.787,,,,,2007-01-06 01:28:57.734
3.238128,-2083,115,-160,-2,-1,-1,11833.38,11120.35,1096.645,1881.949,,,,,2007-01-06 01:28:57.754
3.258148,-2060,139,-146,0,0,0,11833.454,11120.293,1096.597,1881.848,-823,-1127,4,,2007-01-06 01:28:57.774
3.278168,-2067,123,-122,-2,-2,0,11833.557,11120.181,1096.498,1881.919,,,,,2007-01-06 01:28:57.794
3.298187,-2068,122,-147,-2,-1,-1,11833.531,11120.19,1096.604,1881.967,,,,,2007-01-06 01:28:57.814
3.318207,-2081,119,-168,-1,-3,-1,11833.488,11120.245,1096.537,1881.95,,,,,2007-01-06 01:28:57.834
3.338226,-2075,122,-166,-2,-1,0,11833.469,11120.267,1096.643,1881.883,,,,,2007-01-06 01:28:57.854
3.358215,-2067,129,-142,-1,-1,1,11833.418,11120.3,1096.606,1882.024,-818,-1130,8,,2007-01-06 01:28:57.874
3.378235,-2072,117,-163,-1,-1,0,11833.312,11120.357,1096.659,1882.326,,,,,2007-01-06 01:28:57.894
3.398254,-2073,120,-147,2,0,-1,11833.34,11120.315,1096.865,1882.28,,,,,2007-01-06 01:28:57.914
3.418243,-2073,110,-154,-2,-2,-3,11833.235,11120.409,1096.748,1882.452,,,,,2007-01-06 01:28:57.934
3.438263,-2073,120,-122,-1,-1,0,11833.221,11120.409,1096.667,1882.584,,,,,2007-01-06 01:28:57.954
3.458282,-2071,108,-165,-2,-1,0,11833.216,11120.42,1096.67,1882.553,-824,-1129,-2,,2007-01-06 01:28:57.974
3.478302,-2081,110,-179,-2,-2,0,11833.21,11120.434,1096.724,1882.475,,,,,2007-01-06 01:28:57.994
3.498291,-2063,132,-141,-1,-1,-2,11833.226,11120.402,1097.018,1882.396,,,,,2007-01-06 01:28:58.014
3.51831,-2075,118,-145,-1,-1,0,11833.245,11120.362,1096.973,1882.541,,,,,2007-01-06 01:28:58.034
3.53833,-2064,117,-152,0,0,0,11833.3,11120.277,1097.14,1882.596,,,,,2007-01-06 01:28:58.054
3.558349,-2069,128,-171,1,0,-1,11833.249,11120.331,1096.955,1882.71,-822,-1136,3,34185,2007-01-06 01:28:58.074
3.578338,-2074,119,-139,-1,-1,0,11833.342,11120.216,1097.116,1882.702,,,,,2007-01-06 01:28:58.094
3.598358,-2072,121,-163,0,0,-1,11833.438,11120.157,1096.939,1882.556,,,,,2007-01-06 01:28:58.114
3.618377,-2076,115,-118,-1,-1,0,11833.508,11120.087,1096.806,1882.604,,,,,2007-01-06 01:28:58.134
3.638366,-2072,115,-143,-2,-1,0,11833.526,11120.058,1096.765,1882.686,,,,,2007-01-06 01:28:58.154
3.658386,-2076,129,-139,-1,-1,1,11833.451,11120.142,1096.77,1882.66,-829,-1133,-2,,2007-01-06 01:28:58.174
3.678406,-2061,122,-127,-1,-1,0,11833.507,11120.074,1096.612,1882.8,,,,,2007-01-06 01:28:58.194
3.698425,-2086,116,-150,-1,-1,1,11833.618,11119.945,1096.532,1882.914,,,,,2007-01-06 01:28:58.214
3.718445,-2080,116,-172,-1,-1,1,11833.618,11119.93,1096.419,1883.066,,,,,2007-01-06 01:28:58.234
3.738434,-2080,116,-159,0,0,-1,11833.744,11119.784,1096.616,1883.026,,,,,2007-01-06 01:28:58.254
3.758453,-2055,124,-161,0,-1,0,11833.797,11119.725,1096.666,1883.009,-823,-1139,6,,2007-01-06 01:28:58.274
3.778473,-2087,121,-160,0,0,-1,11833.953,11119.557,1096.582,1883.065,,,,,2007-01-06 01:28:58.294
3.798492,-2084,119,-159,-3,-2,-1,11833.857,11119.691,1096.409,1882.981,,,,,2007-01-06 01:28:58.314
3.818481,-2071,119,-166,-2,-1,-1,11833.887,11119.621,1096.412,1883.205,,,,,2007-01-06 01:28:58.334
3.838501,-2070,126,-143,-1,-1,1,11833.914,11119.565,1096.424,1883.356,,,,,2007-01-06 01:28:58.355
3.85852,-2068,114,-153,-2,-1,-1,11833.986,11119.508,1096.608,1883.135,-830,-1130,8,,2007-01-06 01:28:58.375
3.878509,-2065,120,-154,-2,-1,-3,11834.042,11119.46,1096.462,1883.147,,,,,2007-01-06 01:28:58.395
3.898529,-2066,112,-148,-2,-1,0,11834.055,11119.447,1096.533,1883.107,,,,,2007-01-06 01:28:58.415
3.918548,-2058,106,-174,-2,-1,-2,11834.054,11119.478,1096.741,1882.807,,,,,2007-01-06 01:28:58.435
3.938568,-2069,131,-156,-1,1,-1,11834.065,11119.481,1096.767,1882.706,,,,,2007-01-06 01:28:58.455
3.958557,-2064,122,-164,-2,-2,0,11834.183,11119.373,1096.772,1882.601,-823,-1130,2,,2007-01-06 01:28:58.475
3.978576,-2082,131,-139,-1,-1,-2,11834.19,11119.344,1096.855,1882.676,,,,,2007-01-06 01:28:58.495
3.998596,-2081,118,-150,0,1,-1,11834.268,11119.245,1096.832,1882.789,,,,,2007-01-06 01:28:58.515
4.018616,-2061,126,-163,1,0,0,11834.229,11119.276,1097.065,1882.716,,,,,2007-01-06 01:28:58.535
4.038605,-2070,114,-129,0,0,-1,11834.327,11119.21,1096.965,1882.542,,,,,2007-01-06 01:28:58.555
4.058624,-2070,125,-136,-3,-1,1,11834.265,11119.263,1096.872,1882.68,-826,-1133,7,34179,2007-01-06 01:28:58.575
4.078644,-2070,118,-141,-1,-1,1,11834.193,11119.332,1096.88,1882.713,,,,,2007-01-06 01:28:58.595
4.098663,-2091,110,-165,-1,-2,0,11834.135,11119.387,1096.763,1882.818,,,,,2007-01-06 01:28:58.615
4.118683,-2068,118,-136,-1,-1,2,11834.189,11119.274,1096.949,1883.045,,,,,2007-01-06 01:28:58.635
4.138672,-2053,102,-139,1,0,0,11834.197,11119.243,1097.03,1883.126,,,,,2007-01-06 01:28:58.655
4.158691,-2062,120,-157,-1,-1,0,11834.151,11119.288,1097.076,1883.126,-818,-1132,8,,2007-01-06 01:28:58.675
4.178711,-2061,97,-155,1,2,0,11834.243,11119.171,1097.175,1883.177,,,,,2007-01-06 01:28:58.695
4.19873,-2088,126,-141,-2,-1,-2,11834.17,11119.231,1097.185,1883.28,,,,,2007-01-06 01:28:58.715
4.218719,-2070,114,-147,0,1,-1,11834.143,11119.219,1097.31,1883.444,,,,,2007-01-06 01:28:58.735
4.238739,-2082,125,-163,-1,-1,0,11834.204,11119.138,1097.447,1883.464,,,,,2007-01-06 01:28:58.755
4.258819,-2053,124,-157,1,0,-1,11834.224,11119.097,1097.554,1883.517,-827,-1123,13,,2007-01-06 01:28:58.775
4.278747,-2048,119,-133,-1,-1,0,11834.316,11119.017,1097.597,1883.387,,,,,2007-01-06 01:28:58.795
4.298767,-2084,129,-131,-1,-2,0,11834.177,11119.148,1097.748,1883.397,,,,,2007-01-06 01:28:58.815
4.318786,-2071,133,-125,0,1,-1,11834.063,11119.274,1097.508,1883.509,,,,,2007-01-06 01:28:58.835
4.338806,-2061,129,-144,-2,-1,0,11833.905,11119.419,1097.43,1883.689,,,,,2007-01-06 01:28:58.855
4.358825,-2063,121,-171,0,0,0,11833.984,11119.34,1097.303,1883.733,-820,-1135,8,,2007-01-06 01:28:58.875
4.378814,-2087,114,-119,-4,-1,1,11833.971,11119.335,1097.293,1883.847,,,,,2007-01-06 01:28:58.895
4.398834,-2053,128,-170,-1,-1,0,11833.885,11119.377,1097.435,1884.059,,,,,2007-01-06 01:28:58.915
4.418823,-2079,135,-159,0,0,-1,11833.986,11119.301,1097.239,1883.991,,,,,2007-01-06 01:28:58.935
4.438843,-2074,135,-132,-1,-1,-2,11833.948,11119.321,1097.205,1884.129,,,,,2007-01-06 01:28:58.955
4.458862,-2073,113,-134,1,0,-1,11833.862,11119.417,1097.224,1884.088,-817,-1129,-2,,2007-01-06 01:28:58.975
4.478912,-2070,121,-174,-3,-1,1,11833.618,11119.682,1097.26,1884.043,,,,,2007-01-06 01:28:58.995
4.498871,-2055,122,-122,-2,0,0,11833.554,11119.79,1096.937,1883.992,,,,,2007-01-06 01:28:59.015
4.51889,-2079,135,-144,-4,-1,0,11833.468,11119.882,1097.036,1883.935,,,,,2007-01-06 01:28:59.035
4.53891,-2068,127,-159,0,1,1,11833.407,11120,1096.883,1883.705,,,,,2007-01-06 01:28:59.055
4.558929,-2061,107,-147,-3,-1,-2,11833.432,11119.977,1096.858,1883.705,-813,-1127,-1,34158,2007-01-06 01:28:59.075
4.578949,-2071,117,-156,0,0,0,11833.427,11120.001,1096.787,1883.636,,,,,2007-01-06 01:28:59.095
4.598938,-2060,121,-141,-3,-1,0,11833.513,11119.883,1096.787,1883.79,,,,,2007-01-06 01:28:59.115
4.618957,-2091,114,-143,-2,-1,0,11833.498,11119.89,1096.899,1883.777,,,,,2007-01-06 01:28:59.135
4.638977,-2070,122,-168,-1,-1,0,11833.327,11120.084,1096.753,1883.788,,,,,2007-01-06 01:28:59.155
4.658996,-2075,104,-146,-2,-1,2,11833.323,11120.078,1096.58,1883.952,-826,-1138,3,,2007-01-06 01:28:59.175
4.678985,-2071,106,-144,0,0,1,11833.34,11120.056,1096.368,1884.103,,,,,2007-01-06 01:28:59.195
4.699005,-2077,125,-161,-2,-1,2,11833.341,11120.093,1096.261,1883.94,,,,,2007-01-06 01:28:59.215
4.719024,-2078,117,-162,-3,-1,-1,11833.35,11120.109,1096.286,1883.773,,,,,2007-01-06 01:28:59.235
4.739044,-2095,127,-168,-1,-1,-2,11833.232,11120.242,1096.359,1883.679,,,,,2007-01-06 01:28:59.255
4.759064,-2079,125,-161,-1,-1,0,11833.241,11120.237,1096.48,1883.592,-813,-1132,4,,2007-01-06 01:28:59.275
4.779053,-2043,121,-187,-1,-2,-1,11833.256,11120.152,1096.769,1883.826,,,,,2007-01-06 01:28:59.295
4.799072,-2061,116,-149,4,1,-1,11833.464,11119.94,1096.693,1883.812,,,,,2007-01-06 01:28:59.315
4.819061,-2049,112,-151,-2,-3,0,11833.494,11119.892,1096.571,1883.982,,,,,2007-01-06 01:28:59.335
4.839081,-2067,113,-153,-2,-1,-1,11833.455,11119.958,1096.575,1883.831,,,,,2007-01-06 01:28:59.355
4.8591,-2070,122,-147,-1,-1,0,11833.522,11119.892,1096.459,1883.865,-824,-1131,5,,2007-01-06 01:28:59.375
4.87912,-2064,113,-142,0,0,-1,11833.542,11119.839,1096.523,1884.016,,,,,2007-01-06 01:28:59.395
4.899139,-2081,134,-144,-1,-1,0,11833.648,11119.735,1096.567,1883.944,,,,,2007-01-06 01:28:59.415
4.919128,-2068,127,-119,-2,-2,-1,11833.587,11119.793,1096.307,1884.132,,,,,2007-01-06 01:28:59.435
4.939148,-2081,120,-152,0,2,3,11833.415,11119.979,1096.172,1884.191,,,,,2007-01-06 01:28:59.455
4.959167,-2081,114,-151,0,1,0,11833.346,11120.057,1096.059,1884.235,-816,-1127,2,,2007-01-06 01:28:59.475
4.979156,-2066,110,-155,-1,-1,0,11833.439,11119.945,1096.105,1884.287,,,,,2007-01-06 01:28:59.495
4.999176,-2062,139,-151,-1,-1,0,11833.477,11119.902,1095.894,1884.421,,,,,2007-01-06 01:28:59.515
5.019195,-2090,111,-134,-2,-1,1,11833.434,11119.937,1095.828,1884.521,,,,,2007-01-06 01:28:59.535
5.039215,-2068,111,-145,0,0,0,11833.371,11119.981,1095.631,1884.772,,,,,2007-01-06 01:28:59.555
5.059204,-2060,106,-152,0,0,3,11833.224,11120.106,1095.726,1884.906,-812,-1129,12,34164,2007-01-06 01:28:59.575
5.079223,-2092,111,-168,2,1,-1,11833.145,11120.198,1095.933,1884.734,,,,,2007-01-06 01:28:59.595
5.099243,-2068,124,-140,0,0,-3,11833.124,11120.22,1095.88,1884.77,,,,,2007-01-06 01:28:59.615
5.119262,-2057,129,-160,0,0,1,11833.102,11120.237,1095.765,1884.875,,,,,2007-01-06 01:28:59.635
5.139282,-2057,116,-151,-2,0,-2,11833.047,11120.299,1095.777,1884.846,,,,,2007-01-06 01:28:59.655
5.159271,-2069,124,-129,-2,-1,0,11833.081,11120.268,1095.673,1884.874,-818,-1132,6,,2007-01-06 01:28:59.675
5.179291,-2073,131,-137,-2,-1,1,11832.949,11120.403,1095.561,1884.973,,,,,2007-01-06 01:28:59.695
5.19931,-2073,118,-142,-2,-2,-1,11832.941,11120.428,1095.424,1884.961,,,,,2007-01-06 01:28:59.715
5.219299,-2071,126,-125,0,1,1,11832.838,11120.527,1095.536,1884.954,,,,,2007-01-06 01:28:59.735
5.239319,-2081,118,-154,0,1,-2,11832.658,11120.721,1095.521,1884.951,,,,,2007-01-06 01:28:59.755
5.259338,-2088,118,-146,-1,-1,-1,11832.593,11120.786,1095.448,1885.013,-825,-1125,2,,2007-01-06 01:28:59.775
5.279358,-2080,120,-121,-1,-1,0,11832.585,11120.821,1095.341,1884.925,,,,,2007-01-06 01:28:59.795
5.299347,-2088,96,-139,-1,0,0,11832.521,11120.876,1095.369,1884.985,,,,,2007-01-06 01:28:59.815
5.319366,-2059,132,-147,-2,-2,-1,11832.564,11120.865,1095.38,1884.77,,,,,2007-01-06 01:28:59.835
5.339416,-2069,123,-156,-3,-1,0,11832.628,11120.835,1095.265,1884.615,,,,,2007-01-06 01:28:59.855
5.359375,-2081,118,-141,-1,-1,-1,11832.537,11120.938,1095.152,1884.646,-814,-1126,-2,,2007-01-06 01:28:59.875
5.379394,-2066,128,-149,0,0,-1,11832.634,11120.827,1095.274,1884.62,,,,,2007-01-06 01:28:59.895
5.399414,-2075,110,-152,-2,-1,-2,11832.708,11120.75,1095.253,1884.615,,,,,2007-01-06 01:28:59.915
5.419433,-2084,122,-165,0,0,0,11832.673,11120.767,1095.229,1884.748,,,,,2007-01-06 01:28:59.935
5.439453,-2069,122,-134,-1,-1,-1,11832.603,11120.829,1095.296,1884.783,,,,,2007-01-06 01:28:59.955
5.459442,-2070,122,-140,-1,-1,-1,11832.533,11120.902,1095.222,1884.838,-818,-1137,8,,2007-01-06 01:28:59.975
5.479553,-2070,128,-159,-1,-1,0,11832.37,11121.096,1095.171,1884.75,,,,,2007-01-06 01:28:59.996
5.499481,-2066,106,-138,0,0,-1,11832.325,11121.157,1095.163,1884.677,,,,,2007-01-06 01:29:00.015
5.51947,-2067,123,-151,0,2,0,11832.414,11121.065,1095.009,1884.748,,,,,2007-01-06 01:29:00.035
5.53949,-2076,100,-138,-2,-2,0,11832.287,11121.183,1095.021,1884.841,,,,,2007-01-06 01:29:00.055
5.559509,-2087,122,-140,1,1,2,11832.232,11121.236,1094.894,1884.952,-822,-1126,5,34191,2007-01-06 01:29:00.076
5.579529,-2071,130,-162,-2,-2,0,11832.187,11121.28,1094.938,1884.946,,,,,2007-01-06 01:29:00.096
5.599518,-2080,139,-142,0,0,1,11832.265,11121.214,1094.685,1884.994,,,,,2007-01-06 01:29:00.116
5.619568,-2074,124,-148,-2,-2,-1,11832.366,11121.122,1094.685,1884.903,,,,,2007-01-06 01:29:00.136
5.639557,-2060,114,-171,-1,-1,-1,11832.459,11121.019,1094.729,1884.899,,,,,2007-01-06 01:29:00.156
5.659576,-2077,126,-172,-2,-1,-3,11832.51,11120.976,1094.84,1884.772,-829,-1129,10,,2007-01-06 01:29:00.176
5.679596,-2063,138,-139,-1,-1,-2,11832.539,11120.971,1094.595,1884.761,,,,,2007-01-06 01:29:00.196
5.699585,-2063,148,-158,-4,-2,1,11832.458,11121,1094.485,1885.162,,,,,2007-01-06 01:29:00.216
5.719604,-2094,116,-155,2,0,1,11832.438,11121.049,1094.243,1885.141,,,,,2007-01-06 01:29:00.236
5.739624,-2058,117,-148,-1,-1,0,11832.375,11121.093,1094.337,1885.217,,,,,2007-01-06 01:29:00.256
5.759613,-2067,102,-138,0,1,-1,11832.297,11121.184,1094.133,1885.287,-817,-1131,10,,2007-01-06 01:29:00.276
5.779632,-2070,112,-151,-2,-1,1,11832.297,11121.152,1094.321,1885.371,,,,,2007-01-06 01:29:00.296
5.799652,-2062,112,-149,-1,-3,0,11832.166,11121.297,1094.504,1885.231,,,,,2007-01-06 01:29:00.316
5.819671,-2094,122,-130,0,1,-1,11832.142,11121.314,1094.495,1885.283,,,,,2007-01-06 01:29:00.336
5.839691,-2081,129,-159,-1,0,0,11832.016,11121.428,1094.589,1885.352,,,,,2007-01-06 01:29:00.356
5.85971,-2083,128,-180,0,0,-2,11832.002,11121.418,1094.513,1885.541,-818,-1127,-5,,2007-01-06 01:29:00.376
5.879699,-2070,119,-166,2,-1,1,11832.057,11121.34,1094.542,1885.632,,,,,2007-01-06 01:29:00.396
5.899719,-2073,107,-164,0,1,-1,11832.048,11121.37,1094.508,1885.54,,,,,2007-01-06 01:29:00.416
5.919739,-2089,117,-155,-1,-1,1,11832.043,11121.341,1094.63,1885.667,,,,,2007-01-06 01:29:00.436
5.939728,-2068,130,-142,1,1,-2,11832.049,11121.326,1094.633,1885.72,,,,,2007-01-06 01:29:00.456
5.959747,-2070,119,-162,0,0,0,11832.135,11121.236,1094.503,1885.786,-824,-1126,3,,2007-01-06 01:29:00.476
5.979767,-2050,123,-130,-1,-1,1,11832.217,11121.111,1094.675,1885.907,,,,,2007-01-06 01:29:00.496
5.999786,-2083,123,-154,1,0,-1,11832.194,11121.15,1094.708,1885.804,,,,,2007-01-06 01:29:00.516
6.019806,-2067,126,-175,-1,-1,0,11832.275,11121.062,1094.543,1885.906,,,,,2007-01-06 01:29:00.536
6.039795,-2079,120,-134,1,0,2,11832.26,11121.055,1094.632,1885.992,,,,,2007-01-06 01:29:00.556
6.059814,-2080,134,-136,1,0,-2,11832.268,11121.01,1094.686,1886.177,-813,-1127,2,34158,2007-01-06 01:29:00.576
6.079834,-2082,115,-184,1,0,1,11832.308,11120.95,1094.828,1886.201,,,,,2007-01-06 01:29:00.596
6.099823,-2081,123,-129,1,0,-1,11832.493,11120.791,1094.891,1885.936,,,,,2007-01-06 01:29:00.616
6.119842,-2058,120,-142,-2,-1,0,11832.52,11120.771,1094.829,1885.919,,,,,2007-01-06 01:29:00.636
6.139862,-2076,116,-146,-1,-1,1,11832.489,11120.795,1094.983,1885.883,,,,,2007-01-06 01:29:00.656
6.159881,-2082,114,-177,1,0,-2,11832.451,11120.78,1095.076,1886.159,-814,-1133,5,,2007-01-06 01:29:00.676
6.17987,-2071,143,-110,2,1,1,11832.525,11120.667,1095.04,1886.38,,,,,2007-01-06 01:29:00.696
6.19989,-2065,122,-165,-1,-1,2,11832.412,11120.791,1095.053,1886.352,,,,,2007-01-06 01:29:00.716
6.219909,-2072,114,-123,-2,-1,0,11832.407,11120.748,1095.382,1886.447,,,,,2007-01-06 01:29:00.736
6.239898,-2085,149,-161,0,0,0,11832.329,11120.816,1095.591,1886.412,,,,,2007-01-06 01:29:00.756
6.259949,-2069,113,-164,-1,-1,-1,11832.356,11120.804,1095.512,1886.362,-822,-1124,0,,2007-01-06 01:29:00.776
6.279938,-2069,110,-135,-2,-1,-1,11832.379,11120.787,1095.479,1886.338,,,,,2007-01-06 01:29:00.796
6.299957,-2070,135,-164,-2,-1,2,11832.326,11120.894,1095.447,1886.056,,,,,2007-01-06 01:29:00.816
6.319946,-2070,121,-161,-2,0,1,11832.31,11120.876,1095.64,1886.155,,,,,2007-01-06 01:29:00.836
6.339996,-2072,120,-159,1,0,-2,11832.319,11120.819,1095.707,1886.393,,,,,2007-01-06 01:29:00.856
6.359985,-2072,116,-143,0,0,1,11832.447,11120.657,1095.902,1886.433,-812,-1133,0,,2007-01-06 01:29:00.876
6.380005,-2077,115,-148,-1,-1,-1,11832.518,11120.573,1095.911,1886.477,,,,,2007-01-06 01:29:00.896
6.400024,-2077,128,-139,-2,-2,0,11832.49,11120.582,1096.038,1886.519,,,,,2007-01-06 01:29:00.916
6.420044,-2087,128,-147,1,0,-1,11832.455,11120.645,1095.953,1886.414,,,,,2007-01-06 01:29:00.936
6.440033,-2057,122,-153,-2,-1,0,11832.576,11120.54,1095.962,1886.272,,,,,2007-01-06 01:29:00.956
6.460052,-2072,121,-159,-1,-1,-2,11832.533,11120.57,1095.886,1886.413,-816,-1137,6,,2007-01-06 01:29:00.976
6.480072,-2086,117,-168,0,0,1,11832.425,11120.7,1095.954,1886.283,,,,,2007-01-06 01:29:00.996
6.500061,-2074,121,-139,-2,-1,0,11832.456,11120.65,1096.006,1886.355,,,,,2007-01-06 01:29:01.016
6.52008,-2087,118,-142,0,-1,1,11832.601,11120.468,1096.048,1886.489,,,,,2007-01-06 01:29:01.036
6.5401,-2083,131,-129,-1,-2,2,11832.482,11120.573,1096.037,1886.622,,,,,2007-01-06 01:29:01.056
6.560119,-2070,122,-137,0,0,1,11832.574,11120.496,1095.868,1886.598,-813,-1139,6,34179,2007-01-06 01:29:01.076
6.580108,-2078,123,-142,-2,-1,1,11832.474,11120.579,1095.962,1886.684,,,,,2007-01-06 01:29:01.096
6.600128,-2067,129,-156,0,0,-1,11832.549,11120.464,1096.169,1886.769,,,,,2007-01-06 01:29:01.116
6.620147,-2070,112,-125,0,0,-1,11832.579,11120.416,1096.193,1886.856,,,,,2007-01-06 01:29:01.136
6.640167,-2072,129,-144,-1,-2,-1,11832.53,11120.443,1096.267,1886.958,,,,,2007-01-06 01:29:01.156
6.660156,-2066,117,-136,-1,-1,-1,11832.552,11120.401,1096.287,1887.056,-818,-1137,4,,2007-01-06 01:29:01.176
6.680176,-2087,115,-128,0,0,1,11832.502,11120.472,1096.489,1886.836,,,,,2007-01-06 01:29:01.196
6.700256,-2080,125,-159,-1,-1,0,11832.492,11120.497,1096.514,1886.737,,,,,2007-01-06 01:29:01.216
6.720215,-2079,117,-120,-1,-1,0,11832.512,11120.473,1096.587,1886.709,,,,,2007-01-06 01:29:01.236
6.740204,-2072,116,-120,-1,-2,-1,11832.641,11120.348,1096.579,1886.643,,,,,2007-01-06 01:29:01.256
6.760223,-2070,113,-159,-2,-2,0,11832.498,11120.487,1096.658,1886.675,-827,-1135,13,,2007-01-06 01:29:01.276
6.780243,-2073,134,-140,-1,-1,-1,11832.605,11120.366,1096.545,1886.778,,,,,2007-01-06 01:29:01.296
6.800262,-2060,127,-163,-1,-2,0,11832.434,11120.542,1096.599,1886.787,,,,,2007-01-06 01:29:01.316
6.820282,-2082,117,-155,2,1,-1,11832.372,11120.633,1096.508,1886.69,,,,,2007-01-06 01:29:01.336
6.840271,-2045,130,-156,-1,-1,0,11832.594,11120.398,1096.625,1886.612,,,,,2007-01-06 01:29:01.356
6.86029,-2076,118,-125,-2,-2,-1,11832.708,11120.332,1096.475,1886.377,-818,-1132,11,,2007-01-06 01:29:01.376
6.880279,-2077,107,-141,-3,-1,-1,11832.697,11120.355,1096.62,1886.22,,,,,2007-01-06 01:29:01.396
6.900299,-2077,129,-127,0,0,-2,11832.778,11120.286,1096.807,1886.015,,,,,2007-01-06 01:29:01.416
6.920318,-2071,128,-150,-2,-1,-2,11832.765,11120.284,1096.722,1886.158,,,,,2007-01-06 01:29:01.436
6.940338,-2065,121,-154,0,-1,1,11832.909,11120.138,1096.631,1886.167,,,,,2007-01-06 01:29:01.456
6.960327,-2083,130,-154,-3,-1,1,11832.881,11120.203,1096.676,1885.929,-809,-1137,8,,2007-01-06 01:29:01.476
6.980346,-2057,118,-136,-2,-1,-1,11832.95,11120.127,1096.75,1885.901,,,,,2007-01-06 01:29:01.496
7.000366,-2070,127,-135,-2,-2,-1,11832.923,11120.145,1096.724,1885.984,,,,,2007-01-06 01:29:01.516
7.020386,-2063,115,-139,1,0,1,11832.885,11120.164,1096.972,1885.962,,,,,2007-01-06 01:29:01.536
7.040375,-2078,119,-137,-1,-1,-1,11832.888,11120.147,1097.026,1886.02,,,,,2007-01-06 01:29:01.556
7.060394,-2079,130,-153,-1,-3,-1,11832.907,11120.124,1096.971,1886.066,-822,-1129,3,34175,2007-01-06 01:29:01.576
7.080414,-2051,133,-157,-1,-2,-1,11832.944,11120.081,1097.03,1886.053,,,,,2007-01-06 01:29:01.596
7.100433,-2070,125,-144,0,0,-2,11832.922,11120.111,1096.958,1886.056,,,,,2007-01-06 01:29:01.616
7.120453,-2089,113,-174,-1,-1,0,11832.988,11120.029,1097.074,1886.054,,,,,2007-01-06 01:29:01.636
7.140442,-2069,103,-158,-1,0,-2,11832.985,11120.003,1097.24,1886.128,,,,,2007-01-06 01:29:01.656
7.160461,-2080,114,-161,-1,-1,0,11833.067,11119.878,1097.538,1886.186,-823,-1132,13,,2007-01-06 01:29:01.676
7.180481,-2065,125,-142,0,0,-1,11833.102,11119.821,1097.538,1886.301,,,,,2007-01-06 01:29:01.696
7.20047,-2063,117,-136,-1,-2,0,11833.241,11119.641,1097.505,1886.501,,,,,2007-01-06 01:29:01.716
7.220489,-2071,100,-164,1,-2,0,11833.107,11119.766,1097.405,1886.669,,,,,2007-01-06 01:29:01.736
7.240509,-2073,122,-155,-1,0,-1,11833.079,11119.791,1097.345,1886.731,,,,,2007-01-06 01:29:01.757
7.260528,-2084,132,-132,-3,0,0,11833.109,11119.777,1097.295,1886.657,-819,-1136,0,,2007-01-06 01:29:01.777
7.280517,-2064,123,-127,-2,-1,-1,11833.1,11119.771,1097.204,1886.803,,,,,2007-01-06 01:29:01.797
7.300537,-2070,125,-146,0,0,2,11833.013,11119.853,1097.206,1886.855,,,,,2007-01-06 01:29:01.817
7.320556,-2057,121,-149,-1,-2,0,11832.997,11119.84,1097.204,1887.038,,,,,2007-01-06 01:29:01.837
7.340576,-2079,113,-167,0,0,0,11832.962,11119.885,1097.153,1887.025,,,,,2007-01-06 01:29:01.857
7.360565,-2063,114,-164,0,0,-2,11832.97,11119.885,1097.263,1886.91,-818,-1127,8,,2007-01-06 01:29:01.877
7.380585,-2057,118,-172,-2,-1,-2,11832.912,11119.945,1097.51,1886.777,,,,,2007-01-06 01:29:01.897
7.400604,-2069,115,-164,0,0,-2,11833.008,11119.824,1097.655,1886.802,,,,,2007-01-06 01:29:01.917
7.420624,-2069,115,-146,-2,-1,0,11832.984,11119.832,1097.686,1886.886,,,,,2007-01-06 01:29:01.937
7.440613,-2074,114,-133,1,0,0,11832.993,11119.835,1097.71,1886.797,,,,,2007-01-06 01:29:01.957
7.460663,-2066,126,-153,0,0,0,11832.973,11119.85,1097.894,1886.726,-829,-1133,12,,2007-01-06 01:29:01.977
7.480652,-2082,109,-161,2,0,-1,11833.038,11119.76,1097.863,1886.871,,,,,2007-01-06 01:29:01.997
7.500671,-2064,122,-176,-2,-1,1,11833.1,11119.711,1097.798,1886.806,,,,,2007-01-06 01:29:02.017
7.520691,-2070,129,-132,-2,-1,-1,11833.081,11119.729,1097.755,1886.842,,,,,2007-01-06 01:29:02.037
7.54068,-2070,105,-139,-1,-1,0,11833.027,11119.769,1097.928,1886.846,,,,,2007-01-06 01:29:02.057
7.560699,-2078,124,-142,0,0,0,11833.014,11119.797,1097.952,1886.752,-814,-1131,7,34173,2007-01-06 01:29:02.077
7.580719,-2077,129,-139,-1,-2,0,11832.967,11119.828,1097.967,1886.854,,,,,2007-01-06 01:29:02.097
7.600708,-2074,119,-117,0,0,0,11833.081,11119.698,1097.979,1886.894,,,,,2007-01-06 01:29:02.117
7.620727,-2073,119,-153,2,0,-1,11833.043,11119.753,1098.128,1886.728,,,,,2007-01-06 01:29:02.137
7.640747,-2071,115,-147,-1,-1,-2,11832.981,11119.782,1098.071,1886.975,,,,,2007-01-06 01:29:02.157
7.660766,-2057,123,-139,0,1,1,11832.957,11119.813,1097.851,1887.075,-824,-1124,3,,2007-01-06 01:29:02.177
7.680755,-2056,115,-118,-2,-2,0,11832.942,11119.818,1097.969,1887.07,,,,,2007-01-06 01:29:02.197
7.700775,-2063,125,-150,-2,-1,-2,11832.917,11119.857,1097.977,1886.99,,,,,2007-01-06 01:29:02.217
7.720794,-2074,108,-128,-2,-2,2,11832.959,11119.811,1097.957,1887.008,,,,,2007-01-06 01:29:02.237
7.740814,-2086,121,-134,-3,-1,1,11833.02,11119.738,1098.097,1886.976,,,,,2007-01-06 01:29:02.257
7.760803,-2074,110,-163,-1,-1,0,11832.931,11119.817,1097.903,1887.181,-822,-1131,5,,2007-01-06 01:29:02.277
7.780823,-2072,122,-162,-2,-1,2,11832.975,11119.738,1097.869,1887.395,,,,,2007-01-06 01:29:02.297
7.800842,-2069,113,-150,-2,-1,-1,11833.031,11119.718,1097.845,1887.167,,,,,2007-01-06 01:29:02.317
7.820862,-2066,124,-129,-4,-1,-2,11833.037,11119.708,1097.784,1887.225,,,,,2007-01-06 01:29:02.337
7.840851,-2069,124,-133,0,1,0,11833.021,11119.705,1097.919,1887.265,,,,,2007-01-06 01:29:02.357
7.86087,-2073,108,-149,1,0,-1,11833.003,11119.722,1097.722,1887.399,-818,-1137,2,,2007-01-06 01:29:02.377
7.88089,-2056,127,-132,0,0,0,11832.965,11119.762,1097.845,1887.329,,,,,2007-01-06 01:29:02.397
7.900909,-2082,118,-135,2,0,0,11832.949,11119.744,1097.923,1887.485,,,,,2007-01-06 01:29:02.417
7.920959,-2065,129,-128,0,0,2,11833.057,11119.63,1098.035,1887.416,,,,,2007-01-06 01:29:02.437
7.940918,-2076,111,-129,-1,-1,-3,11833.066,11119.615,1098.073,1887.43,,,,,2007-01-06 01:29:02.457
7.960937,-2073,125,-130,-2,-1,0,11832.97,11119.746,1098.023,1887.289,-825,-1139,2,,2007-01-06 01:29:02.477
7.980957,-2064,123,-148,-2,-1,0,11833.074,11119.667,1097.858,1887.195,,,,,2007-01-06 01:29:02.497
8.000946,-2073,111,-130,-1,-2,0,11833.026,11119.663,1098.089,1887.383,,,,,2007-01-06 01:29:02.517
8.020965,-2061,114,-153,2,0,-2,11832.883,11119.774,1098.231,1887.546,,,,,2007-01-06 01:29:02.537
8.040985,-2066,128,-137,0,0,2,11832.954,11119.688,1098.35,1887.535,,,,,2007-01-06 01:29:02.557
8.061004,-2080,127,-140,-2,-1,0,11832.888,11119.741,1098.243,1887.702,-818,-1135,-1,34164,2007-01-06 01:29:02.577
8.080993,-2057,136,-136,-1,-1,0,11832.96,11119.71,1098.263,1887.423,,,,,2007-01-06 01:29:02.597
8.101013,-2079,109,-153,-3,-1,-1,11833.009,11119.658,1098.241,1887.432,,,,,2007-01-06 01:29:02.617
8.121033,-2073,125,-129,-1,0,0,11832.986,11119.661,1098.365,1887.487,,,,,2007-01-06 01:29:02.637
8.141052,-2078,135,-123,1,0,-2,11832.793,11119.853,1098.586,1887.441,,,,,2007-01-06 01:29:02.657
8.161041,-2075,114,-109,0,1,-1,11832.628,11119.98,1098.65,1887.683,-820,-1132,11,,2007-01-06 01:29:02.677
8.181061,-2075,114,-159,1,0,1,11832.563,11120.044,1098.841,1887.603,,,,,2007-01-06 01:29:02.697
8.20108,-2062,125,-170,-2,-1,-1,11832.555,11120.062,1098.804,1887.57,,,,,2007-01-06 01:29:02.717
8.221069,-2068,123,-135,-3,-1,0,11832.615,11120.021,1098.675,1887.509,,,,,2007-01-06 01:29:02.737
8.241089,-2062,119,-147,-2,-1,0,11832.571,11120.032,1098.746,1887.682,,,,,2007-01-06 01:29:02.757
8.261108,-2075,107,-128,-2,0,0,11832.527,11120.062,1098.654,1887.834,-823,-1123,-1,,2007-01-06 01:29:02.777
8.281128,-2067,119,-151,2,0,0,11832.611,11119.994,1098.748,1887.65,,,,,2007-01-06 01:29:02.797
8.301147,-2071,124,-143,-2,-3,-2,11832.687,11119.913,1098.71,1887.676,,,,,2007-01-06 01:29:02.817
8.321136,-2061,122,-115,-3,-1,1,11832.766,11119.825,1098.66,1887.728,,,,,2007-01-06 01:29:02.837
8.341156,-2072,122,-141,-1,-1,1,11832.7,11119.868,1098.845,1887.779,,,,,2007-01-06 01:29:02.857
8.361175,-2076,120,-155,0,0,-1,11832.551,11120.003,1098.949,1887.858,-831,-1138,7,,2007-01-06 01:29:02.877
8.381195,-2070,112,-143,-1,-1,-1,11832.728,11119.8,1099.019,1887.9,,,,,2007-01-06 01:29:02.897
8.401184,-2055,130,-141,0,-1,0,11832.786,11119.701,1099.183,1888.029,,,,,2007-01-06 01:29:02.917
8.421203,-2063,116,-181,-2,-2,2,11832.882,11119.612,1098.927,1888.098,,,,,2007-01-06 01:29:02.937
8.441223,-2066,126,-153,-2,-1,0,11832.869,11119.624,1098.869,1888.145,,,,,2007-01-06 01:29:02.957
8.461242,-2087,130,-161,-2,-1,1,11832.9,11119.523,1099.198,1888.353,-809,-1130,6,,2007-01-06 01:29:02.977
8.481231,-2085,121,-140,0,0,-1,11832.997,11119.395,1099.397,1888.379,,,,,2007-01-06 01:29:02.997
8.501251,-2071,133,-144,-2,-1,0,11833.091,11119.289,1099.294,1888.479,,,,,2007-01-06 01:29:03.017
8.521271,-2068,134,-157,-1,-1,0,11833.055,11119.35,1099.144,1888.432,,,,,2007-01-06 01:29:03.037
8.54129,-2079,115,-145,1,1,0,11833.094,11119.296,1099.228,1888.458,,,,,2007-01-06 01:29:03.057
8.561279,-2074,112,-152,1,0,0,11832.987,11119.411,1099.391,1888.353,-819,-1117,3,34136,2007-01-06 01:29:03.077
8.581299,-2085,140,-151,1,2,-1,11832.952,11119.473,1099.292,1888.27,,,,,2007-01-06 01:29:03.097
8.601288,-2080,111,-139,-3,0,2,11833.052,11119.344,1099.377,1888.355,,,,,2007-01-06 01:29:03.117
8.621307,-2079,142,-142,0,-1,-1,11832.985,11119.387,1099.439,1888.479,,,,,2007-01-06 01:29:03.137
8.641327,-2050,122,-166,-2,-1,0,11833.043,11119.325,1099.512,1888.443,,,,,2007-01-06 01:29:03.157
8.661346,-2090,124,-161,2,0,-3,11833.113,11119.225,1099.722,1888.472,-825,-1125,6,,2007-01-06 01:29:03.177
8.681366,-2083,127,-170,0,1,1,11833.17,11119.166,1099.609,1888.522,,,,,2007-01-06 01:29:03.197
8.701385,-2071,129,-154,-2,0,0,11833.23,11119.126,1099.476,1888.462,,,,,2007-01-06 01:29:03.217
8.721374,-2063,116,-146,-3,0,1,11833.263,11119.055,1099.549,1888.629,,,,,2007-01-06 01:29:03.237
8.741394,-2086,119,-152,0,0,-1,11833.342,11118.928,1099.654,1888.825,,,,,2007-01-06 01:29:03.257
8.761413,-2056,120,-133,-1,-2,1,11833.281,11119.014,1099.787,1888.625,-820,-1132,2,,2007-01-06 01:29:03.277
8.781433,-2075,116,-139,1,0,-2,11833.247,11119.074,1099.703,1888.528,,,,,2007-01-06 01:29:03.297
8.801422,-2081,122,-145,0,1,1,11833.135,11119.211,1099.791,1888.373,,,,,2007-01-06 01:29:03.317
8.821441,-2085,120,-138,-1,-1,-2,11833.114,11119.199,1100.023,1888.439,,,,,2007-01-06 01:29:03.337
8.841461,-2074,117,-150,2,0,0,11833.158,11119.149,1100.084,1888.425,,,,,2007-01-06 01:29:03.357
8.861481,-2080,112,-140,-2,-1,0,11833.231,11119.057,1100.162,1888.461,-819,-1122,10,,2007-01-06 01:29:03.377
8.88147,-2053,123,-144,-1,-1,-1,11833.26,11119.048,1100.142,1888.34,,,,,2007-01-06 01:29:03.397
8.901489,-2084,115,-142,-1,-2,-2,11833.227,11119.068,1100.329,1888.324,,,,,2007-01-06 01:29:03.417
8.921509,-2065,124,-154,-1,-2,-2,11833.191,11119.098,1100.351,1888.361,,,,,2007-01-06 01:29:03.438
8.941498,-2080,120,-142,1,0,1,11833.174,11119.074,1100.475,1888.537,,,,,2007-01-06 01:29:03.457
8.961517,-2066,114,-145,1,0,-2,11833.089,11119.141,1100.547,1888.639,-812,-1133,-6,,2007-01-06 01:29:03.478
8.981537,-2081,132,-144,1,0,0,11833.129,11119.1,1100.561,1888.616,,,,,2007-01-06 01:29:03.498
9.001526,-2073,119,-140,-1,-2,-2,11833.117,11119.109,1100.633,1888.596,,,,,2007-01-06 01:29:03.518
9.021545,-2071,123,-151,-2,-1,0,11833.069,11119.117,1100.768,1888.772,,,,,2007-01-06 01:29:03.538
9.041565,-2059,128,-137,0,-1,0,11832.991,11119.181,1100.645,1888.958,,,,,2007-01-06 01:29:03.558
9.061615,-2076,127,-150,-2,-1,-1,11833.156,11119.041,1100.371,1888.907,-818,-1132,4,34185,2007-01-06 01:29:03.578
9.081604,-2062,126,-157,-2,-2,0,11833.076,11119.124,1100.197,1889.018,,,,,2007-01-06 01:29:03.598
9.101593,-2074,128,-146,-1,0,1,11833.119,11119.054,1100.282,1889.112,,,,,2007-01-06 01:29:03.618
9.121612,-2082,125,-161,-1,-2,1,11833.293,11118.883,1100.281,1889.027,,,,,2007-01-06 01:29:03.638
9.141693,-2070,122,-159,-2,-3,-1,11833.405,11118.762,1100.222,1889.075,,,,,2007-01-06 01:29:03.658
9.161651,-2073,120,-163,-1,-1,-1,11833.463,11118.698,1100.304,1889.042,-818,-1132,11,,2007-01-06 01:29:03.678
9.18164,-2079,120,-121,-1,-2,-2,11833.575,11118.57,1100.335,1889.072,,,,,2007-01-06 01:29:03.698
9.20166,-2075,108,-168,-1,-1,0,11833.512,11118.624,1100.685,1888.945,,,,,2007-01-06 01:29:03.718
9.221679,-2078,127,-148,-2,-1,-1,11833.519,11118.625,1100.662,1888.907,,,,,2007-01-06 01:29:03.738
9.241699,-2065,106,-134,-2,-1,-1,11833.595,11118.548,1100.688,1888.873,,,,,2007-01-06 01:29:03.758
9.261719,-2074,119,-150,-2,-1,0,11833.56,11118.571,1100.764,1888.914,-816,-1135,2,,2007-01-06 01:29:03.778
9.281708,-2061,119,-158,1,1,0,11833.463,11118.673,1101.015,1888.776,,,,,2007-01-06 01:29:03.798
9.301727,-2059,136,-131,-1,-1,-1,11833.52,11118.616,1101.038,1888.742,,,,,2007-01-06 01:29:03.818
9.321747,-2081,145,-122,-1,-2,0,11833.598,11118.51,1101.006,1888.889,,,,,2007-01-06 01:29:03.838
9.341766,-2077,132,-133,-1,-1,0,11833.547,11118.57,1101.07,1888.817,,,,,2007-01-06 01:29:03.858
9.361755,-2073,101,-149,-1,-1,-4,11833.505,11118.598,1101.106,1888.902,-818,-1127,4,,2007-01-06 01:29:03.878
9.381775,-2066,100,-132,1,0,0,11833.49,11118.594,1101.119,1889.008,,,,,2007-01-06 01:29:03.898
9.401794,-2083,123,-170,-3,-1,1,11833.464,11118.638,1101.3,1888.81,,,,,2007-01-06 01:29:03.918
9.421783,-2083,114,-165,-2,-2,-2,11833.468,11118.622,1101.402,1888.817,,,,,2007-01-06 01:29:03.938
9.441864,-2061,125,-123,0,0,-2,11833.59,11118.47,1101.503,1888.886,,,,,2007-01-06 01:29:03.958
9.461822,-2069,115,-139,-1,-2,-1,11833.48,11118.562,1101.435,1889.073,-824,-1131,7,,2007-01-06 01:29:03.978
9.481842,-2072,115,-176,1,0,0,11833.413,11118.653,1101.276,1889.049,,,,,2007-01-06 01:29:03.998
9.501831,-2050,120,-125,-1,-1,0,11833.385,11118.708,1101.181,1888.959,,,,,2007-01-06 01:29:04.018
9.52185,-2080,118,-133,0,0,1,11833.413,11118.671,1101.326,1888.913,,,,,2007-01-06 01:29:04.038
9.5419,-2078,131,-154,-2,-2,0,11833.352,11118.738,1101.192,1888.984,,,,,2007-01-06 01:29:04.058
9.561889,-2054,117,-177,-1,-1,0,11833.448,11118.611,1101.259,1889.087,-824,-1131,7,34160,2007-01-06 01:29:04.078
9.581909,-2080,124,-173,0,-1,1,11833.405,11118.645,1101.499,1889.02,-820,-1132,13,,2007-01-06 01:29:04.098
9.601898,-2063,121,-160,2,0,-3,11833.304,11118.737,1101.584,1889.06,,,,,2007-01-06 01:29:04.118
9.621918,-2081,122,-164,1,1,1,11833.336,11118.678,1101.645,1889.172,,,,,2007-01-06 01:29:04.138
9.641998,-2073,118,-154,0,0,0,11833.321,11118.704,1101.781,1889.031,,,,,2007-01-06 01:29:04.158
9.661926,-2096,121,-121,-1,-1,0,11833.402,11118.618,1101.751,1889.049,,,,,2007-01-06 01:29:04.178
9.681946,-2078,98,-144,-3,-1,-1,11833.38,11118.629,1101.84,1889.069,-835,-1135,11,,2007-01-06 01:29:04.198
9.701965,-2070,117,-132,0,0,0,11833.428,11118.585,1101.915,1888.986,,,,,2007-01-06 01:29:04.218
9.721985,-2073,125,-149,-1,0,0,11833.485,11118.543,1101.843,1888.92,,,,,2007-01-06 01:29:04.238
9.741974,-2085,116,-122,-2,-2,1,11833.503,11118.552,1101.779,1888.787,,,,,2007-01-06 01:29:04.258
9.761993,-2082,110,-154,-1,-1,-1,11833.347,11118.711,1101.685,1888.886,,,,,2007-01-06 01:29:04.278
9.782013,-2088,111,-151,-1,0,1,11833.399,11118.653,1101.656,1888.914,-823,-1130,8,,2007-01-06 01:29:04.298
9.802002,-2067,115,-159,-1,-2,2,11833.464,11118.57,1101.716,1888.965,,,,,2007-01-06 01:29:04.318
9.822021,-2079,122,-137,0,-1,1,11833.378,11118.645,1101.914,1888.948,,,,,2007-01-06 01:29:04.338
9.842041,-2077,125,-132,0,1,-1,11833.414,11118.593,1101.996,1888.981,,,,,2007-01-06 01:29:04.358
9.86206,-2068,108,-168,-1,-1,0,11833.363,11118.669,1101.864,1888.928,,,,,2007-01-06 01:29:04.378
9.882049,-2062,114,-148,-3,-1,0,11833.549,11118.497,1101.886,1888.763,-826,-1133,3,,2007-01-06 01:29:04.398
9.902069,-2070,114,-140,-2,-2,-1,11833.538,11118.511,1101.896,1888.745,,,,,2007-01-06 01:29:04.418
9.922088,-2088,141,-152,-1,-2,-1,11833.594,11118.458,1101.825,1888.748,,,,,2007-01-06 01:29:04.438
9.942108,-2064,130,-141,0,2,-1,11833.723,11118.35,1101.643,1888.676,,,,,2007-01-06 01:29:04.458
9.962097,-2048,118,-141,-2,-2,0,11833.821,11118.241,1101.54,1888.764,,,,,2007-01-06 01:29:04.478
9.982147,-2079,125,-162,-3,-1,0,11833.86,11118.224,1101.296,1888.764,-811,-1132,18,,2007-01-06 01:29:04.498
10.002136,-2065,101,-149,-2,-1,1,11833.825,11118.262,1101.158,1888.839,,,,,2007-01-06 01:29:04.518
10.022156,-2088,111,-141,-1,-1,2,11833.727,11118.315,1101.456,1888.965,,,,,2007-01-06 01:29:04.538
10.042175,-2076,104,-162,1,0,-1,11833.871,11118.129,1101.535,1889.116,,,,,2007-01-06 01:29:04.558
10.062164,-2073,113,-159,-1,-1,-1,11833.971,11118,1101.65,1889.181,-811,-1132,18,34136,2007-01-06 01:29:04.578
10.082184,-2066,106,-137,0,0,-1,11834.084,11117.862,1101.805,1889.194,-811,-1130,-3,,2007-01-06 01:29:04.598
10.102203,-2058,115,-147,-2,-1,-1,11834.242,11117.661,1101.895,1889.335,,,,,2007-01-06 01:29:04.618
10.122223,-2079,112,-132,0,-1,0,11834.204,11117.672,1101.791,1889.567,,,,,2007-01-06 01:29:04.638
10.142212,-2069,127,-149,0,0,1,11834.241,11117.619,1101.985,1889.541,,,,,2007-01-06 01:29:04.658
10.162231,-2070,117,-151,1,0,-2,11834.322,11117.494,1102.001,1889.751,,,,,2007-01-06 01:29:04.678
10.182251,-2077,111,-168,-1,-2,-1,11834.428,11117.369,1101.959,1889.85,-814,-1124,10,,2007-01-06 01:29:04.698
10.20227,-2071,110,-127,-2,-1,0,11834.504,11117.289,1101.942,1889.859,,,,,2007-01-06 01:29:04.718
10.22229,-2058,110,-153,-2,-1,0,11834.366,11117.45,1101.854,1889.822,,,,,2007-01-06 01:29:04.738
10.242279,-2074,124,-129,-1,-1,0,11834.383,11117.421,1101.972,1889.819,,,,,2007-01-06 01:29:04.758
10.262298,-2068,119,-174,1,-1,-1,11834.393,11117.414,1101.969,1889.804,,,,,2007-01-06 01:29:04.778
10.282287,-2055,136,-139,0,-1,-1,11834.363,11117.397,1102.153,1889.983,-827,-1132,6,,2007-01-06 01:29:04.798
10.302307,-2073,114,-130,-1,0,1,11834.41,11117.338,1102.004,1890.123,,,,,2007-01-06 01:29:04.818
10.322326,-2055,106,-139,-2,-1,1,11834.402,11117.367,1101.986,1890.009,,,,,2007-01-06 01:29:04.838
10.342346,-2081,112,-137,0,0,2,11834.33,11117.463,1101.956,1889.91,,,,,2007-01-06 01:29:04.858
10.362427,-2056,124,-131,0,1,-1,11834.207,11117.585,1101.965,1889.962,,,,,2007-01-06 01:29:04.878
10.382355,-2071,129,-146,2,0,0,11834.208,11117.554,1101.962,1890.139,-818,-1123,6,,2007-01-06 01:29:04.898
10.402374,-2080,97,-127,-1,-1,2,11834.122,11117.59,1102.212,1890.318,,,,,2007-01-06 01:29:04.918
10.422394,-2074,118,-161,0,0,-1,11834.127,11117.548,1102.407,1890.422,,,,,2007-01-06 01:29:04.938
10.442413,-2070,123,-144,-1,-1,0,11834.132,11117.557,1102.444,1890.317,,,,,2007-01-06 01:29:04.958
10.462402,-2067,146,-181,-1,0,0,11834.167,11117.531,1102.415,1890.268,,,,,2007-01-06 01:29:04.978
10.482422,-2061,121,-153,-3,-1,-1,11834.263,11117.422,1102.462,1890.28,-814,-1131,3,,2007-01-06 01:29:04.998
10.502441,-2077,107,-131,1,1,0,11834.287,11117.399,1102.599,1890.186,,,,,2007-01-06 01:29:05.018
10.522461,-2060,132,-156,-1,-2,-1,11834.291,11117.365,1102.728,1890.285,,,,,2007-01-06 01:29:05.038
10.54245,-2073,115,-156,0,-1,-3,11834.29,11117.365,1102.846,1890.225,,,,,2007-01-06 01:29:05.058
10.562469,-2075,116,-157,1,0,1,11834.342,11117.296,1102.777,1890.342,-814,-1131,3,34175,2007-01-06 01:29:05.078
10.582458,-2070,119,-165,0,-1,-1,11834.532,11117.076,1102.776,1890.447,-811,-1127,6,,2007-01-06 01:29:05.098
10.602508,-2069,116,-140,0,0,0,11834.532,11117.043,1102.757,1890.651,,,,,2007-01-06 01:29:05.119
10.622497,-2063,125,-121,-1,-1,1,11834.59,11117.006,1102.63,1890.581,,,,,2007-01-06 01:29:05.138
10.642517,-2089,113,-155,0,0,0,11834.648,11116.893,1102.748,1890.813,,,,,2007-01-06 01:29:05.159
10.662506,-2072,118,-159,0,-1,0,11834.762,11116.76,1102.708,1890.907,,,,,2007-01-06 01:29:05.179
10.682556,-2085,105,-147,-1,-1,0,11834.723,11116.807,1102.645,1890.908,-811,-1132,-1,,2007-01-06 01:29:05.199
10.702545,-2065,155,-146,-2,-1,1,11834.655,11116.86,1102.657,1891.02,,,,,2007-01-06 01:29:05.219
10.722564,-2078,116,-137,-2,-1,0,11834.731,11116.778,1102.631,1891.038,,,,,2007-01-06 01:29:05.239
10.742554,-2059,115,-142,-3,-1,-1,11834.713,11116.807,1102.348,1891.141,,,,,2007-01-06 01:29:05.259
10.762573,-2070,115,-155,-1,-1,2,11834.638,11116.876,1102.198,1891.294,,,,,2007-01-06 01:29:05.279
10.782593,-2081,117,-136,0,0,0,11834.62,11116.878,1102.502,1891.221,-824,-1122,7,,2007-01-06 01:29:05.299
10.802612,-2075,125,-116,0,0,-2,11834.63,11116.886,1102.576,1891.069,,,,,2007-01-06 01:29:05.319
10.822601,-2083,102,-145,-1,-1,-2,11834.54,11116.958,1102.647,1891.164,,,,,2007-01-06 01:29:05.339
10.842621,-2065,110,-148,0,0,0,11834.609,11116.893,1102.595,1891.15,,,,,2007-01-06 01:29:05.359
10.86264,-2075,122,-149,-2,-1,0,11834.555,11116.955,1102.806,1890.996,,,,,2007-01-06 01:29:05.379
10.88266,-2072,109,-157,0,0,-3,11834.496,11116.999,1102.982,1891.004,-819,-1129,3,,2007-01-06 01:29:05.399
10.902649,-2080,132,-135,1,0,-2,11834.584,11116.915,1102.958,1890.962,,,,,2007-01-06 01:29:05.419
10.922699,-2072,134,-145,-1,-1,0,11834.523,11116.984,1103.001,1890.91,,,,,2007-01-06 01:29:05.439
10.942688,-2080,125,-135,1,0,-1,11834.598,11116.9,1103.03,1890.92,,,,,2007-01-06 01:29:05.459
10.962707,-2067,128,-140,-1,-1,-1,11834.596,11116.908,1103.083,1890.855,,,,,2007-01-06 01:29:05.479
10.982727,-2075,118,-146,-1,-1,0,11834.559,11116.931,1103.245,1890.852,-817,-1124,14,,2007-01-06 01:29:05.499
11.002716,-2088,104,-138,-1,-1,-1,11834.606,11116.906,1103.267,1890.692,,,,,2007-01-06 01:29:05.519
11.022735,-2073,137,-171,-3,-3,-1,11834.622,11116.913,1103.152,1890.62,,,,,2007-01-06 01:29:05.539
11.042755,-2070,108,-156,-1,-1,-1,11834.714,11116.796,1103.148,1890.737,,,,,2007-01-06 01:29:05.559
11.062744,-2067,104,-151,-1,-1,0,11834.821,11116.648,1103.498,1890.732,-817,-1124,14,34185,2007-01-06 01:29:05.579
11.082763,-2065,139,-141,2,-1,-2,11835.007,11116.466,1103.387,1890.705,-817,-1133,5,,2007-01-06 01:29:05.599
11.102783,-2063,133,-123,-2,-2,0,11835.125,11116.324,1103.41,1890.786,,,,,2007-01-06 01:29:05.619
11.122803,-2052,133,-159,-1,-1,0,11835.05,11116.407,1103.151,1890.919,,,,,2007-01-06 01:29:05.639
11.142822,-2078,124,-158,-1,-2,2,11835.072,11116.356,1103.059,1891.131,,,,,2007-01-06 01:29:05.659
11.162811,-2078,110,-122,-1,-1,1,11835.033,11116.373,1103.28,1891.146,,,,,2007-01-06 01:29:05.679
11.182831,-2081,119,-169,-1,-1,-3,11835.069,11116.332,1103.483,1891.05,-813,-1120,-1,,2007-01-06 01:29:05.699
11.20285,-2071,116,-144,0,0,-2,11835.145,11116.239,1103.437,1891.15,,,,,2007-01-06 01:29:05.719
11.22287,-2079,129,-167,-1,-1,0,11835.186,11116.182,1103.654,1891.096,,,,,2007-01-06 01:29:05.739
11.242889,-2089,103,-151,0,0,-1,11835.021,11116.365,1103.347,1891.231,,,,,2007-01-06 01:29:05.759
11.262878,-2080,124,-166,-2,-1,2,11835.048,11116.374,1103.27,1891.06,,,,,2007-01-06 01:29:05.779
11.282898,-2074,137,-147,0,0,0,11835.168,11116.256,1103.359,1890.949,-820,-1132,4,,2007-01-06 01:29:05.799
11.302917,-2051,116,-137,-1,-1,-1,11835.212,11116.211,1103.246,1890.999,,,,,2007-01-06 01:29:05.819
11.322906,-2056,108,-132,-3,-1,2,11835.134,11116.252,1103.231,1891.258,,,,,2007-01-06 01:29:05.839
11.342926,-2067,122,-137,1,2,1,11835.147,11116.227,1103.197,1891.344,,,,,2007-01-06 01:29:05.859
11.362945,-2083,118,-124,-2,-2,0,11835.278,11116.114,1103.079,1891.258,,,,,2007-01-06 01:29:05.879
11.382934,-2074,132,-139,-1,-1,-2,11835.229,11116.164,1103.185,1891.207,-820,-1132,6,,2007-01-06 01:29:05.899
11.402954,-2083,119,-118,0,1,0,11835.199,11116.154,1103.449,1891.301,,,,,2007-01-06 01:29:05.919
11.422973,-2076,116,-159,0,0,-1,11835.183,11116.159,1103.546,1891.316,,,,,2007-01-06 01:29:05.939
11.442993,-2076,114,-167,-2,-1,-1,11835.232,11116.132,1103.593,1891.137,,,,,2007-01-06 01:29:05.959
11.463012,-2060,131,-153,0,0,-1,11835.245,11116.122,1103.62,1891.101,,,,,2007-01-06 01:29:05.979
11.483063,-2069,115,-141,-1,-1,0,11835.203,11116.143,1103.577,1891.262,-823,-1125,-3,,2007-01-06 01:29:05.999
11.503021,-2077,141,-161,0,0,1,11835.193,11116.15,1103.377,1891.402,,,,,2007-01-06 01:29:06.019
11.523041,-2081,128,-136,-2,-1,1,11835.317,11115.987,1103.481,1891.527,,,,,2007-01-06 01:29:06.039
11.54306,-2084,118,-156,-1,-2,-2,11835.415,11115.865,1103.622,1891.548,,,,,2007-01-06 01:29:06.059
11.56308,-2082,111,-178,-1,-1,-2,11835.326,11115.924,1103.713,1891.707,-823,-1125,-3,34183,2007-01-06 01:29:06.079
11.58313,-2068,125,-140,1,0,2,11835.348,11115.863,1103.779,1891.885,-818,-1132,-1,,2007-01-06 01:29:06.099
11.603088,-2085,114,-171,2,1,-2,11835.351,11115.85,1103.908,1891.867,,,,,2007-01-06 01:29:06.119
11.623108,-2057,117,-122,-1,-1,1,11835.426,11115.751,1104.042,1891.902,,,,,2007-01-06 01:29:06.139
11.643127,-2073,126,-160,0,-1,-2,11835.334,11115.827,1104.015,1892.048,,,,,2007-01-06 01:29:06.159
11.663116,-2060,111,-125,-1,0,1,11835.171,11115.978,1104.011,1892.18,,,,,2007-01-06 01:29:06.179
11.683136,-2069,113,-146,-1,-1,0,11835.154,11115.988,1104.136,1892.158,-829,-1133,14,,2007-01-06 01:29:06.199
11.703155,-2075,134,-156,-3,-2,1,11835.149,11116.03,1104.202,1891.901,,,,,2007-01-06 01:29:06.219
11.723144,-2072,126,-131,-1,-1,-1,11835.064,11116.127,1104.144,1891.897,,,,,2007-01-06 01:29:06.239
11.743164,-2063,143,-138,-1,0,0,11835.093,11116.136,1104.087,1891.693,,,,,2007-01-06 01:29:06.259
11.763183,-2077,125,-160,-1,-1,-2,11835.012,11116.197,1104.14,1891.816,,,,,2007-01-06 01:29:06.279
11.783203,-2060,132,-144,0,0,-2,11834.959,11116.225,1104.054,1892.032,-811,-1125,6,,2007-01-06 01:29:06.299
11.803222,-2080,122,-147,-3,-1,0,11835.008,11116.16,1104.016,1892.123,,,,,2007-01-06 01:29:06.319
11.823211,-2060,116,-141,-2,-1,1,11834.97,11116.2,1103.977,1892.154,,,,,2007-01-06 01:29:06.339
11.8432,-2070,103,-139,-1,-1,1,11834.946,11116.204,1104.101,1892.203,,,,,2007-01-06 01:29:06.359
11.863251,-2064,128,-174,0,0,0,11834.9,11116.205,1104.28,1892.385,,,,,2007-01-06 01:29:06.379
11.88324,-2072,127,-158,1,0,1,11834.891,11116.235,1104.124,1892.357,-827,-1132,-7,,2007-01-06 01:29:06.399
11.903259,-2064,130,-176,-4,-1,1,11835.001,11116.119,1104.115,1892.353,,,,,2007-01-06 01:29:06.419
11.923279,-2073,110,-132,-2,-2,0,11834.936,11116.182,1104.029,1892.441,,,,,2007-01-06 01:29:06.439
11.943268,-2069,117,-157,-2,-1,-1,11834.942,11116.172,1103.963,1892.504,,,,,2007-01-06 01:29:06.459
11.963287,-2068,119,-153,-3,-1,0,11835,11116.112,1103.827,1892.57,,,,,2007-01-06 01:29:06.479
11.983307,-2066,105,-137,-2,-2,2,11835.033,11116.049,1103.86,1892.716,-818,-1125,13,,2007-01-06 01:29:06.499
12.003296,-2060,109,-145,0,0,0,11835.021,11116.078,1103.791,1892.662,,,,,2007-01-06 01:29:06.519
12.023346,-2070,132,-150,-2,-1,0,11835.098,11116.031,1103.785,1892.459,,,,,2007-01-06 01:29:06.539
12.043365,-2095,118,-156,-2,-2,-1,11835.123,11115.996,1103.794,1892.505,,,,,2007-01-06 01:29:06.559
12.063354,-2077,132,-149,-2,-1,-1,11835.21,11115.894,1103.793,1892.559,-818,-1125,13,34167,2007-01-06 01:29:06.579
12.083374,-2087,115,-174,-1,-1,-2,11835.255,11115.858,1103.633,1892.583,-822,-1140,0,,2007-01-06 01:29:06.599
12.103393,-2069,129,-151,-2,-1,0,11835.355,11115.765,1103.657,1892.488,,,,,2007-01-06 01:29:06.619
12.123382,-2071,140,-152,-1,-2,0,11835.512,11115.617,1103.712,1892.345,,,,,2007-01-06 01:29:06.639
12.143402,-2070,134,-133,0,0,-2,11835.608,11115.497,1103.594,1892.516,,,,,2007-01-06 01:29:06.659
12.163421,-2058,123,-162,-2,-1,1,11835.566,11115.524,1103.49,1892.682,,,,,2007-01-06 01:29:06.679
12.183441,-2067,131,-151,-1,-1,-1,11835.663,11115.396,1103.697,1892.705,-816,-1137,6,,2007-01-06 01:29:06.699
12.20343,-2072,141,-158,0,0,-3,11835.661,11115.43,1103.549,1892.606,,,,,2007-01-06 01:29:06.719
12.223449,-2061,109,-159,-2,-1,0,11835.647,11115.426,1103.553,1892.717,,,,,2007-01-06 01:29:06.739
12.243469,-2077,116,-116,-1,-1,-1,11835.576,11115.458,1103.82,1892.814,,,,,2007-01-06 01:29:06.759
12.263489,-2072,126,-165,0,0,-1,11835.535,11115.515,1103.714,1892.797,,,,,2007-01-06 01:29:06.779
12.283478,-2070,126,-159,-1,-1,0,11835.499,11115.543,1103.716,1892.853,-824,-1136,10,,2007-01-06 01:29:06.799
12.303497,-2067,130,-147,1,0,0,11835.481,11115.546,1103.626,1893.008,,,,,2007-01-06 01:29:06.819
12.323517,-2067,138,-136,-2,-1,2,11835.434,11115.587,1103.627,1893.056,,,,,2007-01-06 01:29:06.840
12.343506,-2051,132,-148,-1,-1,-1,11835.429,11115.608,1103.388,1893.107,,,,,2007-01-06 01:29:06.860
12.363525,-2074,134,-140,-1,-1,2,11835.555,11115.493,1103.489,1892.93,,,,,2007-01-06 01:29:06.880
12.383545,-2086,128,-160,-3,-1,-1,11835.464,11115.608,1103.564,1892.782,-818,-1130,2,,2007-01-06 01:29:06.900
12.403534,-2071,112,-149,-1,-1,-1,11835.459,11115.586,1103.728,1892.849,,,,,2007-01-06 01:29:06.920
12.423553,-2072,119,-149,-1,-1,-1,11835.526,11115.521,1103.8,1892.77,,,,,2007-01-06 01:29:06.940
12.443573,-2081,123,-142,-1,-1,-1,11835.47,11115.599,1103.771,1892.675,,,,,2007-01-06 01:29:06.960
12.463592,-2061,129,-160,-3,-1,-1,11835.449,11115.612,1103.9,1892.653,,,,,2007-01-06 01:29:06.980
12.483612,-2073,122,-160,-1,0,-2,11835.5,11115.526,1104.008,1892.78,-818,-1120,4,,2007-01-06 01:29:07.000
12.503631,-2079,123,-152,0,0,-1,11835.404,11115.606,1103.982,1892.925,,,,,2007-01-06 01:29:07.020
12.52362,-2071,119,-157,0,0,1,11835.317,11115.711,1103.864,1892.924,,,,,2007-01-06 01:29:07.040
12.54364,-2054,122,-167,1,0,2,11835.225,11115.81,1103.869,1892.913,,,,,2007-01-06 01:29:07.060
12.563659,-2072,106,-150,0,2,-2,11835.214,11115.788,1103.985,1893.041,-818,-1120,4,34154,2007-01-06 01:29:07.080
12.583679,-2082,114,-174,-1,0,0,11835.158,11115.81,1104.057,1893.224,-819,-1129,0,,2007-01-06 01:29:07.100
12.603668,-2075,105,-140,1,1,0,11835.221,11115.754,1104.064,1893.154,,,,,2007-01-06 01:29:07.120
12.623688,-2094,116,-136,-3,-1,-1,11835.331,11115.655,1103.99,1893.089,,,,,2007-01-06 01:29:07.140
12.643677,-2065,126,-134,-2,-3,0,11835.336,11115.646,1104.047,1893.077,,,,,2007-01-06 01:29:07.160
12.663727,-2074,122,-172,0,0,0,11835.382,11115.569,1104.195,1893.159,,,,,2007-01-06 01:29:07.180
12.683716,-2086,103,-146,-2,-2,0,11835.387,11115.568,1104.118,1893.178,-824,-1145,10,,2007-01-06 01:29:07.200
12.703735,-2064,135,-150,-2,-1,0,11835.633,11115.297,1104.362,1893.09,,,,,2007-01-06 01:29:07.220
12.723755,-2076,113,-143,-1,-3,-1,11835.648,11115.258,1104.572,1893.103,,,,,2007-01-06 01:29:07.240
12.743744,-2066,109,-157,-1,-1,-3,11835.677,11115.228,1104.565,1893.1,,,,,2007-01-06 01:29:07.260
12.763763,-2068,126,-156,0,-1,0,11835.771,11115.142,1104.565,1893.017,,,,,2007-01-06 01:29:07.280
12.783783,-2083,123,-162,-1,-1,-1,11835.745,11115.155,1104.648,1893.049,-818,-1137,2,,2007-01-06 01:29:07.300
12.803863,-2075,129,-152,-1,-1,-1,11835.657,11115.237,1104.624,1893.137,,,,,2007-01-06 01:29:07.320
12.823791,-2074,124,-151,0,0,1,11835.762,11115.125,1104.714,1893.087,,,,,2007-01-06 01:29:07.340
12.843811,-2075,124,-152,-1,-1,-1,11835.739,11115.132,1104.737,1893.179,,,,,2007-01-06 01:29:07.360
12.86383,-2078,137,-149,-1,-1,0,11835.639,11115.258,1104.581,1893.149,,,,,2007-01-06 01:29:07.380
12.883819,-2079,134,-135,-2,-1,1,11835.639,11115.235,1104.666,1893.237,-811,-1135,4,,2007-01-06 01:29:07.400
12.903839,-2077,123,-154,0,0,0,11835.499,11115.373,1104.647,1893.316,,,,,2007-01-06 01:29:07.420
12.923858,-2080,104,-135,0,0,-1,11835.436,11115.447,1104.726,1893.227,,,,,2007-01-06 01:29:07.440
12.943878,-2081,117,-136,0,0,-1,11835.398,11115.481,1104.763,1893.242,,,,,2007-01-06 01:29:07.460
12.963897,-2076,126,-162,0,0,1,11835.415,11115.463,1104.738,1893.255,,,,,2007-01-06 01:29:07.480
12.983887,-2074,119,-140,-2,-1,-1,11835.385,11115.477,1104.628,1893.425,-820,-1130,8,,2007-01-06 01:29:07.500
13.003906,-2074,114,-157,0,0,2,11835.292,11115.543,1104.749,1893.547,,,,,2007-01-06 01:29:07.520
13.023926,-2081,128,-137,1,0,0,11835.242,11115.605,1104.716,1893.519,,,,,2007-01-06 01:29:07.540
13.043945,-2070,122,-134,-1,0,2,11835.234,11115.592,1104.56,1893.737,,,,,2007-01-06 01:29:07.560
13.063934,-2065,119,-151,-2,-1,1,11835.163,11115.693,1104.629,1893.54,-820,-1130,8,34148,2007-01-06 01:29:07.580
13.083954,-2079,116,-146,-1,0,1,11835.123,11115.737,1104.774,1893.449,-823,-1137,2,,2007-01-06 01:29:07.600
13.103973,-2079,111,-143,0,1,-2,11835.143,11115.714,1104.859,1893.414,,,,,2007-01-06 01:29:07.620
13.123993,-2066,131,-143,1,1,-1,11835.187,11115.665,1104.974,1893.353,,,,,2007-01-06 01:29:07.640
13.143982,-2084,109,-139,0,0,-2,11835.164,11115.683,1105,1893.379,,,,,2007-01-06 01:29:07.660
13.164001,-2058,110,-142,-1,-1,0,11835.079,11115.757,1105.185,1893.369,,,,,2007-01-06 01:29:07.680
13.184021,-2074,125,-140,1,0,0,11835.01,11115.822,1105.215,1893.405,-816,-1135,8,,2007-01-06 01:29:07.700
13.20401,-2065,104,-147,-1,-1,-1,11835.019,11115.782,1105.354,1893.496,,,,,2007-01-06 01:29:07.720
13.22406,-2059,130,-152,0,0,-2,11835.025,11115.777,1105.351,1893.497,,,,,2007-01-06 01:29:07.740
13.244049,-2067,119,-118,-3,-1,-1,11835.033,11115.772,1105.368,1893.466,,,,,2007-01-06 01:29:07.760
13.264068,-2069,137,-127,-1,-1,-1,11834.964,11115.834,1105.498,1893.455,,,,,2007-01-06 01:29:07.780
13.284057,-2071,119,-169,-2,-1,-1,11834.969,11115.83,1105.475,1893.461,-830,-1135,2,,2007-01-06 01:29:07.800
13.304077,-2060,124,-180,-1,-1,-1,11834.891,11115.932,1105.453,1893.358,,,,,2007-01-06 01:29:07.820
13.324096,-2071,104,-165,1,0,-1,11834.883,11115.95,1105.439,1893.314,,,,,2007-01-06 01:29:07.840
13.344116,-2055,108,-159,-1,1,0,11834.988,11115.83,1105.44,1893.364,,,,,2007-01-06 01:29:07.860
13.364105,-2089,153,-143,-1,-1,-2,11835.058,11115.77,1105.472,1893.26,,,,,2007-01-06 01:29:07.880
13.384125,-2069,125,-135,-3,-1,-3,11835.103,11115.689,1105.559,1893.4,-824,-1131,0,,2007-01-06 01:29:07.900
13.404144,-2057,120,-115,1,0,-1,11835.045,11115.735,1105.491,1893.533,,,,,2007-01-06 01:29:07.920
13.424164,-2074,133,-147,-2,-2,1,11835.048,11115.746,1105.53,1893.425,,,,,2007-01-06 01:29:07.940
13.444183,-2078,111,-145,-1,-1,-4,11835.068,11115.714,1105.633,1893.43,,,,,2007-01-06 01:29:07.960
13.464172,-2062,124,-151,-1,-1,0,11835.022,11115.746,1105.826,1893.412,,,,,2007-01-06 01:29:07.980
13.484192,-2073,117,-144,0,0,-1,11835.013,11115.73,1106.018,1893.45,-820,-1130,4,,2007-01-06 01:29:08.000
13.504211,-2072,110,-158,-2,-1,-1,11835.035,11115.679,1106.175,1893.525,,,,,2007-01-06 01:29:08.020
13.5242,-2090,121,-149,-1,-1,-1,11835.072,11115.63,1106.318,1893.497,,,,,2007-01-06 01:29:08.040
13.54425,-2072,120,-136,1,0,-1,11835.034,11115.66,1106.299,1893.571,,,,,2007-01-06 01:29:08.060
13.564239,-2079,118,-167,0,0,1,11834.952,11115.735,1106.332,1893.622,-820,-1130,4,34160,2007-01-06 01:29:08.080
13.584259,-2060,126,-153,1,0,0,11834.882,11115.797,1106.365,1893.677,-824,-1133,3,,2007-01-06 01:29:08.100
13.604248,-2060,129,-149,0,0,-1,11834.867,11115.818,1106.21,1893.735,,,,,2007-01-06 01:29:08.120
13.624267,-2059,122,-144,-2,-1,0,11834.834,11115.833,1106.273,1893.816,,,,,2007-01-06 01:29:08.140
13.644287,-2080,123,-129,-1,-1,0,11834.814,11115.846,1106.343,1893.824,,,,,2007-01-06 01:29:08.160
13.664306,-2066,103,-131,-1,-1,-1,11834.773,11115.913,1106.254,1893.743,,,,,2007-01-06 01:29:08.180
13.684295,-2075,142,-145,-1,-1,-1,11834.689,11115.987,1106.255,1893.837,-818,-1132,11,,2007-01-06 01:29:08.200
13.704315,-2083,121,-145,0,0,0,11834.652,11116.043,1106.374,1893.667,,,,,2007-01-06 01:29:08.220
13.724335,-2067,95,-157,0,0,-1,11834.48,11116.238,1106.347,1893.61,,,,,2007-01-06 01:29:08.240
13.744354,-2067,109,-145,-1,0,-2,11834.461,11116.251,1106.312,1893.672,,,,,2007-01-06 01:29:08.260
13.764374,-2069,116,-143,0,0,2,11834.445,11116.215,1106.489,1893.886,,,,,2007-01-06 01:29:08.280
13.784393,-2081,119,-167,1,0,0,11834.372,11116.323,1106.396,1893.759,-817,-1138,12,,2007-01-06 01:29:08.300
13.804382,-2085,127,-140,-2,-1,0,11834.276,11116.423,1106.131,1893.927,,,,,2007-01-06 01:29:08.320
13.824402,-2074,110,-161,-2,-1,2,11834.314,11116.386,1106.072,1893.942,,,,,2007-01-06 01:29:08.340
13.844421,-2071,131,-121,-3,-1,1,11834.317,11116.396,1106.018,1893.898,,,,,2007-01-06 01:29:08.360
13.86441,-2083,124,-168,-1,0,-1,11834.249,11116.478,1106.057,1893.814,,,,,2007-01-06 01:29:08.380
13.88443,-2065,129,-172,1,0,-1,11834.306,11116.428,1105.948,1893.814,-814,-1129,3,,2007-01-06 01:29:08.400
13.904449,-2073,122,-149,-3,-1,0,11834.321,11116.412,1106.119,1893.717,,,,,2007-01-06 01:29:08.420
13.924438,-2075,107,-157,-2,-1,-2,11834.376,11116.341,1106.138,1893.778,,,,,2007-01-06 01:29:08.440
13.944458,-2068,135,-154,-1,-2,1,11834.369,11116.322,1106.282,1893.852,,,,,2007-01-06 01:29:08.460
13.964477,-2074,116,-162,-1,-1,-1,11834.432,11116.223,1106.438,1893.948,,,,,2007-01-06 01:29:08.480
13.984466,-2062,135,-137,1,0,1,11834.406,11116.232,1106.38,1894.089,-810,-1124,12,,2007-01-06 01:29:08.500
14.004516,-2080,112,-155,0,-1,3,11834.601,11116.043,1106.346,1894.001,,,,,2007-01-06 01:29:08.521
14.024566,-2076,116,-155,-1,-3,1,11834.529,11116.113,1106.327,1894.045,,,,,2007-01-06 01:29:08.541
14.044525,-2070,102,-158,0,1,0,11834.434,11116.194,1106.4,1894.125,,,,,2007-01-06 01:29:08.561
14.064544,-2062,130,-157,0,0,-1,11834.363,11116.228,1106.731,1894.181,-810,-1124,12,34179,2007-01-06 01:29:08.581
14.084533,-2067,117,-134,1,0,-1,11834.268,11116.32,1106.687,1894.255,-817,-1129,10,,2007-01-06 01:29:08.601
14.104553,-2075,116,-149,0,0,0,11834.284,11116.316,1106.619,1894.222,,,,,2007-01-06 01:29:08.621
14.124573,-2075,114,-159,-2,-1,-1,11834.213,11116.364,1106.73,1894.315,,,,,2007-01-06 01:29:08.641
14.144592,-2078,133,-142,0,0,-1,11834.239,11116.356,1106.888,1894.109,,,,,2007-01-06 01:29:08.661
14.164581,-2066,117,-166,-2,-1,-1,11834.259,11116.312,1106.919,1894.22,,,,,2007-01-06 01:29:08.681
14.184631,-2063,127,-154,-1,-1,0,11834.303,11116.267,1106.982,1894.176,-820,-1127,6,,2007-01-06 01:29:08.701
14.20462,-2074,107,-176,-2,-1,-2,11834.304,11116.253,1106.994,1894.24,,,,,2007-01-06 01:29:08.721
14.224609,-2071,128,-141,-1,-1,-1,11834.446,11116.097,1106.833,1894.366,,,,,2007-01-06 01:29:08.741
14.244629,-2084,133,-150,-2,-2,1,11834.452,11116.114,1106.749,1894.279,,,,,2007-01-06 01:29:08.761
14.264648,-2076,126,-142,-1,-1,-1,11834.397,11116.153,1106.688,1894.432,,,,,2007-01-06 01:29:08.781
14.284668,-2056,120,-137,-2,-1,1,11834.387,11116.146,1106.789,1894.474,-814,-1131,10,,2007-01-06 01:29:08.801
14.304687,-2073,112,-119,-2,-1,1,11834.423,11116.12,1106.731,1894.433,,,,,2007-01-06 01:29:08.821
14.324707,-2072,139,-151,-1,-1,-2,11834.345,11116.207,1106.82,1894.356,,,,,2007-01-06 01:29:08.841
14.344696,-2065,117,-135,-3,-1,0,11834.413,11116.15,1106.895,1894.227,,,,,2007-01-06 01:29:08.861
14.364715,-2090,119,-177,-1,-2,-1,11834.513,11116.057,1106.954,1894.115,,,,,2007-01-06 01:29:08.881
14.384735,-2070,113,-152,0,0,0,11834.475,11116.104,1106.95,1894.08,-823,-1125,6,,2007-01-06 01:29:08.901
14.404754,-2075,123,-157,-1,0,0,11834.349,11116.225,1106.991,1894.127,,,,,2007-01-06 01:29:08.921
14.424743,-2070,129,-127,0,2,1,11834.35,11116.243,1106.878,1894.08,,,,,2007-01-06 01:29:08.941
14.444763,-2058,100,-156,0,0,0,11834.412,11116.192,1106.836,1894.021,,,,,2007-01-06 01:29:08.961
14.464752,-2063,129,-145,-2,-1,-1,11834.473,11116.158,1106.733,1893.897,,,,,2007-01-06 01:29:08.981
14.484802,-2075,128,-140,-2,-2,1,11834.36,11116.266,1106.648,1894.02,-826,-1136,-2,,2007-01-06 01:29:09.001
14.504822,-2080,130,-152,-1,-1,2,11834.238,11116.37,1106.648,1894.17,,,,,2007-01-06 01:29:09.021
14.524811,-2081,113,-163,0,0,1,11834.232,11116.373,1106.782,1894.112,,,,,2007-01-06 01:29:09.041
14.54483,-2081,124,-134,-2,-1,0,11834.165,11116.417,1107.027,1894.134,,,,,2007-01-06 01:29:09.061
14.564819,-2059,126,-141,2,1,-1,11834.107,11116.477,1107.061,1894.126,-826,-1136,-2,34167,2007-01-06 01:29:09.081
14.584839,-2067,126,-170,-1,-1,-2,11833.989,11116.598,1106.965,1894.2,-826,-1126,3,,2007-01-06 01:29:09.101
14.604858,-2076,131,-143,0,1,0,11833.955,11116.638,1107.049,1894.135,,,,,2007-01-06 01:29:09.121
14.624878,-2076,123,-138,0,0,2,11833.906,11116.69,1106.822,1894.267,,,,,2007-01-06 01:29:09.141
14.644897,-2064,121,-159,-1,-1,2,11833.756,11116.83,1106.765,1894.414,,,,,2007-01-06 01:29:09.161
14.664886,-2084,115,-144,0,0,1,11833.71,11116.872,1106.739,1894.467,,,,,2007-01-06 01:29:09.181
14.684906,-2064,119,-151,2,0,0,11833.73,11116.828,1106.754,1894.593,-826,-1131,5,,2007-01-06 01:29:09.201
14.704925,-2079,124,-175,1,1,0,11833.677,11116.854,1106.69,1894.809,,,,,2007-01-06 01:29:09.221
14.724945,-2070,121,-158,-2,-1,0,11833.642,11116.895,1106.797,1894.724,,,,,2007-01-06 01:29:09.241
14.744934,-2072,117,-161,-2,-1,-1,11833.602,11116.946,1106.686,1894.743,,,,,2007-01-06 01:29:09.261
14.764953,-2072,109,-169,0,1,1,11833.605,11116.923,1106.753,1894.823,,,,,2007-01-06 01:29:09.281
14.784973,-2066,118,-153,0,0,-1,11833.519,11117.003,1106.826,1894.844,-822,-1136,7,,2007-01-06 01:29:09.301
14.804962,-2062,138,-144,0,1,1,11833.45,11117.073,1106.847,1894.85,,,,,2007-01-06 01:29:09.321
14.824981,-2086,123,-135,-1,-1,1,11833.301,11117.211,1106.908,1894.937,,,,,2007-01-06 01:29:09.341
14.845001,-2057,135,-155,0,0,-2,11833.303,11117.162,1107.029,1895.141,,,,,2007-01-06 01:29:09.361
14.865021,-2077,115,-150,0,-1,1,11833.344,11117.144,1106.86,1895.089,,,,,2007-01-06 01:29:09.381
14.88501,-2080,122,-173,-2,-1,1,11833.288,11117.198,1106.842,1895.131,-814,-1138,7,,2007-01-06 01:29:09.401
14.905029,-2088,118,-153,0,1,0,11833.289,11117.207,1106.726,1895.141,,,,,2007-01-06 01:29:09.421
14.925049,-2073,112,-150,-1,-1,0,11833.169,11117.347,1106.668,1895.101,,,,,2007-01-06 01:29:09.441
14.945068,-2076,132,-127,-1,-1,-2,11833.212,11117.318,1106.633,1895.031,,,,,2007-01-06 01:29:09.461
14.965057,-2072,103,-121,-2,-2,-1,11833.209,11117.306,1106.619,1895.124,,,,,2007-01-06 01:29:09.481
14.985077,-2068,125,-155,-1,-1,-1,11833.185,11117.357,1106.721,1894.916,-814,-1131,5,,2007-01-06 01:29:09.501
15.005096,-2087,126,-132,-1,-1,0,11833.252,11117.28,1106.961,1894.806,,,,,2007-01-06 01:29:09.521
15.025116,-2062,109,-171,0,0,-2,11833.299,11117.228,1107.094,1894.74,,,,,2007-01-06 01:29:09.541
15.045105,-2074,108,-135,-1,-2,-1,11833.3,11117.233,1107.093,1894.707,,,,,2007-01-06 01:29:09.561
15.065124,-2076,130,-146,-1,-1,-2,11833.41,11117.127,1107.404,1894.458,-814,-1131,5,34164,2007-01-06 01:29:09.581
15.085144,-2073,108,-148,-1,-2,-3,11833.334,11117.204,1107.399,1894.482,-824,-1129,10,,2007-01-06 01:29:09.601
15.105133,-2067,130,-140,-2,-1,0,11833.302,11117.247,1107.288,1894.501,,,,,2007-01-06 01:29:09.621
15.125152,-2071,128,-132,-2,0,1,11833.195,11117.325,1107.314,1894.692,,,,,2007-01-06 01:29:09.641
15.145202,-2071,131,-172,0,0,1,11833.191,11117.347,1107.301,1894.602,,,,,2007-01-06 01:29:09.661
15.165191,-2076,112,-188,-2,-1,-2,11833.165,11117.384,1107.211,1894.594,,,,,2007-01-06 01:29:09.681
15.185211,-2068,113,-147,-1,0,1,11833.204,11117.334,1107.165,1894.672,-829,-1138,14,,2007-01-06 01:29:09.701
15.2052,-2057,127,-138,-2,-2,0,11833.321,11117.245,1106.986,1894.567,,,,,2007-01-06 01:29:09.721
15.22522,-2086,107,-149,-2,-1,0,11833.323,11117.252,1106.978,1894.524,,,,,2007-01-06 01:29:09.741
15.2453,-2069,105,-128,-1,-1,-1,11833.336,11117.24,1107.053,1894.463,,,,,2007-01-06 01:29:09.761
15.265259,-2081,141,-128,0,0,-2,11833.311,11117.248,1107.125,1894.529,,,,,2007-01-06 01:29:09.781
15.285248,-2064,129,-125,-1,-1,0,11833.23,11117.326,1107.191,1894.542,-818,-1125,11,,2007-01-06 01:29:09.801
15.305267,-2072,118,-157,0,0,1,11833.196,11117.355,1107.007,1894.689,,,,,2007-01-06 01:29:09.821
15.325287,-2078,126,-136,1,0,1,11833.195,11117.348,1107.223,1894.608,,,,,2007-01-06 01:29:09.841
15.345306,-2077,107,-136,-1,0,-1,11833.252,11117.273,1107.369,1894.606,,,,,2007-01-06 01:29:09.861
15.365295,-2075,120,-159,-2,-1,-1,11833.315,11117.201,1107.345,1894.653,,,,,2007-01-06 01:29:09.881
15.385315,-2052,136,-136,-2,-1,-1,11833.303,11117.167,1107.609,1894.772,-817,-1122,3,,2007-01-06 01:29:09.901
15.405304,-2071,138,-151,1,0,0,11833.286,11117.171,1107.488,1894.925,,,,,2007-01-06 01:29:09.921
15.425354,-2073,119,-155,-1,-1,0,11833.3,11117.118,1107.569,1895.104,,,,,2007-01-06 01:29:09.941
15.445343,-2068,132,-139,-1,-1,0,11833.369,11117.018,1107.664,1895.21,,,,,2007-01-06 01:29:09.961
15.465362,-2066,123,-159,0,0,-1,11833.37,11117.021,1107.643,1895.195,,,,,2007-01-06 01:29:09.981
15.485382,-2063,115,-152,1,1,-1,11833.471,11116.922,1107.65,1895.14,-814,-1136,3,,2007-01-06 01:29:10.001
15.505371,-2053,133,-161,-2,-2,0,11833.5,11116.852,1107.63,1895.375,,,,,2007-01-06 01:29:10.021
15.52539,-2068,123,-115,-1,-1,2,11833.542,11116.811,1107.699,1895.317,,,,,2007-01-06 01:29:10.041
15.54541,-2086,117,-146,-2,-1,-2,11833.508,11116.851,1107.664,1895.312,,,,,2007-01-06 01:29:10.061
15.565429,-2082,126,-173,-1,-1,-2,11833.346,11117.033,1107.58,1895.313,-814,-1136,3,34179,2007-01-06 01:29:10.081
15.585449,-2063,119,-166,-2,-1,1,11833.291,11117.094,1107.555,1895.309,-823,-1137,4,,2007-01-06 01:29:10.101
15.605438,-2067,124,-175,-1,0,1,11833.472,11116.899,1107.549,1895.327,,,,,2007-01-06 01:29:10.121
15.625458,-2069,127,-139,0,-1,-1,11833.586,11116.784,1107.684,1895.212,,,,,2007-01-06 01:29:10.141
15.645477,-2089,122,-173,-1,-1,0,11833.679,11116.688,1107.755,1895.148,,,,,2007-01-06 01:29:10.161
15.665466,-2065,113,-129,-1,-2,-2,11833.759,11116.611,1108.019,1894.953,,,,,2007-01-06 01:29:10.181
15.685486,-2083,119,-160,1,-1,-2,11833.702,11116.627,1108.193,1895.107,-814,-1140,14,,2007-01-06 01:29:10.201
15.705505,-2050,132,-159,2,-1,1,11833.892,11116.416,1108.224,1895.144,,,,,2007-01-06 01:29:10.222
15.725525,-2060,130,-127,-1,-3,0,11834.041,11116.265,1108.211,1895.106,,,,,2007-01-06 01:29:10.242
15.745544,-2088,105,-150,-2,-1,-2,11833.949,11116.373,1108.24,1895.03,,,,,2007-01-06 01:29:10.262
15.765533,-2081,115,-156,-2,1,-2,11834.076,11116.266,1108.356,1894.8,,,,,2007-01-06 01:29:10.282
15.785553,-2068,119,-149,-1,-1,-1,11834.167,11116.179,1108.534,1894.635,-823,-1137,2,,2007-01-06 01:29:10.302
15.805572,-2082,131,-160,-3,-1,-3,11834.126,11116.214,1108.47,1894.724,,,,,2007-01-06 01:29:10.322
15.825561,-2070,119,-151,0,0,0,11834.141,11116.215,1108.448,1894.636,,,,,2007-01-06 01:29:10.342
15.845581,-2076,107,-132,0,0,-2,11834.111,11116.266,1108.485,1894.499,,,,,2007-01-06 01:29:10.362
15.8656,-2071,116,-143,-1,-1,-1,11834.025,11116.355,1108.621,1894.437,,,,,2007-01-06 01:29:10.382
15.885589,-2070,139,-159,0,0,0,11833.973,11116.409,1108.659,1894.425,-820,-1139,4,,2007-01-06 01:29:10.402
15.905609,-2067,125,-148,-2,-1,-2,11833.997,11116.396,1108.59,1894.389,,,,,2007-01-06 01:29:10.422
15.925628,-2073,121,-152,-1,-1,0,11833.977,11116.426,1108.475,1894.404,,,,,2007-01-06 01:29:10.442
15.945648,-2058,117,-164,-1,-1,2,11834.084,11116.322,1108.23,1894.492,,,,,2007-01-06 01:29:10.462
15.965668,-2069,128,-149,0,-1,0,11834.112,11116.253,1108.453,1894.594,,,,,2007-01-06 01:29:10.482
15.985657,-2060,111,-169,0,0,0,11834.034,11116.295,1108.404,1894.865,-817,-1138,3,,2007-01-06 01:29:10.502
16.005676,-2086,122,-152,1,0,0,11833.956,11116.373,1108.41,1894.886,,,,,2007-01-06 01:29:10.522
16.025696,-2065,123,-131,-2,-1,-1,11833.978,11116.401,1108.279,1894.662,,,,,2007-01-06 01:29:10.542
16.045715,-2065,113,-156,-2,-1,-1,11834.111,11116.23,1108.34,1894.797,,,,,2007-01-06 01:29:10.562
16.065735,-2068,117,-156,1,-1,1,11834.075,11116.266,1108.364,1894.797,-817,-1138,3,34173,2007-01-06 01:29:10.582
16.085724,-2078,105,-146,-2,-1,-1,11834.18,11116.129,1108.362,1894.941,-810,-1138,10,,2007-01-06 01:29:10.602
16.105743,-2048,134,-152,-1,-2,0,11834.188,11116.148,1108.214,1894.871,,,,,2007-01-06 01:29:10.622
16.125732,-2066,129,-132,-1,-1,0,11834.134,11116.18,1108.214,1895.018,,,,,2007-01-06 01:29:10.642
16.145752,-2073,128,-156,0,1,0,11834.119,11116.227,1108.222,1894.835,,,,,2007-01-06 01:29:10.662
16.165771,-2078,114,-144,-2,0,-1,11834.069,11116.273,1108.063,1894.966,,,,,2007-01-06 01:29:10.682
16.185791,-2076,141,-126,-2,-1,1,11834.015,11116.343,1108.137,1894.849,-807,-1133,7,,2007-01-06 01:29:10.702
16.20578,-2077,133,-141,-2,-1,0,11833.826,11116.539,1108.105,1894.904,,,,,2007-01-06 01:29:10.722
16.225799,-2063,115,-158,0,0,0,11833.772,11116.621,1108.204,1894.699,,,,,2007-01-06 01:29:10.742
16.245819,-2069,133,-158,-1,-1,0,11833.783,11116.58,1108.27,1894.836,,,,,2007-01-06 01:29:10.762
16.265838,-2078,126,-122,1,0,-2,11833.798,11116.559,1108.252,1894.874,,,,,2007-01-06 01:29:10.782
16.285827,-2078,120,-152,0,0,0,11833.748,11116.622,1108.138,1894.884,-813,-1137,2,,2007-01-06 01:29:10.802
16.305847,-2052,113,-153,0,0,1,11833.841,11116.553,1107.885,1894.855,,,,,2007-01-06 01:29:10.822
16.325866,-2074,122,-123,-2,-1,0,11833.837,11116.575,1107.889,1894.747,,,,,2007-01-06 01:29:10.842
16.345886,-2076,130,-142,-2,-1,-1,11833.816,11116.617,1108.037,1894.548,,,,,2007-01-06 01:29:10.862
16.365875,-2071,121,-150,0,0,-1,11833.783,11116.646,1108.149,1894.516,,,,,2007-01-06 01:29:10.882
16.385895,-2085,128,-110,2,0,0,11833.833,11116.58,1108.032,1894.661,-824,-1140,0,,2007-01-06 01:29:10.902
16.405914,-2080,118,-140,-1,-1,1,11833.804,11116.627,1107.877,1894.655,,,,,2007-01-06 01:29:10.922
16.425934,-2078,139,-141,0,0,-1,11833.812,11116.611,1107.974,1894.644,,,,,2007-01-06 01:29:10.942
16.445953,-2057,118,-141,-3,-1,0,11833.708,11116.706,1108.086,1894.67,,,,,2007-01-06 01:29:10.962
16.466003,-2073,116,-171,0,0,0,11833.624,11116.802,1108.228,1894.546,,,,,2007-01-06 01:29:10.982
16.485962,-2056,132,-149,0,1,-1,11833.722,11116.662,1108.212,1894.767,-817,-1138,-2,,2007-01-06 01:29:11.002
16.505981,-2077,125,-153,-1,-1,1,11833.712,11116.661,1108.353,1894.757,,,,,2007-01-06 01:29:11.022
16.526001,-2073,134,-135,-1,-1,0,11833.867,11116.482,1108.34,1894.844,,,,,2007-01-06 01:29:11.042
16.54599,-2067,113,-140,-2,-1,1,11834.026,11116.351,1108.441,1894.559,,,,,2007-01-06 01:29:11.062
16.566009,-2084,119,-146,-1,-1,-2,11834.018,11116.379,1108.453,1894.437,-817,-1138,-2,34164,2007-01-06 01:29:11.082
16.586029,-2068,108,-118,-2,-1,0,11834.145,11116.258,1108.661,1894.238,-823,-1120,-3,,2007-01-06 01:29:11.102
16.606048,-2076,116,-154,-2,-1,-4,11834.203,11116.199,1108.759,1894.155,,,,,2007-01-06 01:29:11.122
16.626037,-2080,119,-107,-1,-1,0,11834.184,11116.244,1108.574,1894.122,,,,,2007-01-06 01:29:11.142
16.646057,-2063,121,-148,-2,0,1,11834.044,11116.408,1108.396,1894.138,,,,,2007-01-06 01:29:11.162
16.666076,-2076,121,-137,0,0,1,11833.97,11116.511,1108.486,1893.945,,,,,2007-01-06 01:29:11.182
16.686096,-2094,131,-148,0,2,0,11833.766,11116.731,1108.325,1894.023,-818,-1125,8,,2007-01-06 01:29:11.202
16.706116,-2072,124,-161,-1,-1,2,11833.66,11116.871,1108.055,1894.024,,,,,2007-01-06 01:29:11.222
16.726105,-2078,131,-147,-2,-1,1,11833.669,11116.874,1107.845,1894.068,,,,,2007-01-06 01:29:11.242
16.746124,-2053,118,-166,1,-1,0,11833.678,11116.832,1108.01,1894.163,,,,,2007-01-06 01:29:11.262
16.766144,-2078,121,-172,0,0,0,11833.645,11116.879,1107.932,1894.139,,,,,2007-01-06 01:29:11.282
16.786133,-2077,115,-132,-1,-1,-1,11833.519,11117.011,1107.985,1894.124,-820,-1132,4,,2007-01-06 01:29:11.302
16.806152,-2074,111,-151,-1,0,1,11833.477,11117.039,1107.974,1894.223,,,,,2007-01-06 01:29:11.322
16.826172,-2072,102,-162,0,0,0,11833.491,11117.04,1107.953,1894.141,,,,,2007-01-06 01:29:11.342
16.846191,-2064,132,-123,-3,-1,-1,11833.435,11117.107,1108.224,1893.941,,,,,2007-01-06 01:29:11.362
16.86618,-2071,115,-138,-1,-1,-3,11833.399,11117.156,1108.001,1894.011,,,,,2007-01-06 01:29:11.382
16.8862,-2093,112,-157,-1,-2,1,11833.458,11117.11,1108.127,1893.837,-814,-1129,5,,2007-01-06 01:29:11.402
16.906219,-2069,113,-158,0,1,-1,11833.469,11117.101,1108.071,1893.856,,,,,2007-01-06 01:29:11.422
16.926239,-2079,124,-123,0,0,1,11833.438,11117.144,1107.99,1893.842,,,,,2007-01-06 01:29:11.442
16.946228,-2061,133,-149,-1,-1,0,11833.385,11117.236,1107.955,1893.65,,,,,2007-01-06 01:29:11.462
16.966247,-2066,123,-136,-4,-1,-1,11833.408,11117.208,1107.967,1893.664,,,,,2007-01-06 01:29:11.482
16.986267,-2077,97,-137,1,0,-1,11833.365,11117.267,1107.894,1893.635,-823,-1135,11,,2007-01-06 01:29:11.502
17.006256,-2065,118,-148,-2,-1,0,11833.316,11117.318,1108.093,1893.524,,,,,2007-01-06 01:29:11.522
17.026275,-2069,131,-161,-2,-1,0,11833.271,11117.371,1108.079,1893.502,,,,,2007-01-06 01:29:11.542
17.046295,-2080,111,-164,1,0,-1,11833.275,11117.355,1108.12,1893.547,,,,,2007-01-06 01:29:11.562
17.066314,-2064,102,-120,0,0,-1,11833.233,11117.395,1108.121,1893.575,-823,-1135,11,34122,2007-01-06 01:29:11.582
17.086304,-2074,118,-147,-1,-1,-1,11833.153,11117.465,1108.258,1893.583,-824,-1126,5,,2007-01-06 01:29:11.602
17.106323,-2052,111,-118,0,0,1,11833.081,11117.548,1108.255,1893.546,,,,,2007-01-06 01:29:11.622
17.126343,-2063,120,-143,0,0,0,11833.059,11117.591,1108.402,1893.347,,,,,2007-01-06 01:29:11.642
17.146362,-2066,118,-120,-2,-1,-2,11833.114,11117.537,1108.361,1893.343,,,,,2007-01-06 01:29:11.662
17.166351,-2069,105,-147,-2,-3,0,11833.163,11117.515,1108.241,1893.234,,,,,2007-01-06 01:29:11.682
17.186371,-2062,132,-138,0,-1,0,11833.22,11117.456,1108.313,1893.186,-819,-1131,10,,2007-01-06 01:29:11.702
17.20639,-2067,130,-136,-1,-1,-1,11833.311,11117.371,1108.223,1893.167,,,,,2007-01-06 01:29:11.722
17.22641,-2074,111,-146,-3,-1,0,11833.27,11117.455,1108.377,1892.843,,,,,2007-01-06 01:29:11.742
17.246429,-2071,121,-115,-3,-1,-3,11833.19,11117.532,1108.467,1892.836,,,,,2007-01-06 01:29:11.762
17.266418,-2072,111,-163,1,0,0,11833.114,11117.599,1108.611,1892.83,,,,,2007-01-06 01:29:11.782
17.286438,-2076,129,-133,-1,-1,-1,11833.162,11117.591,1108.677,1892.541,-829,-1131,3,,2007-01-06 01:29:11.802
17.306457,-2080,124,-154,-1,-1,-3,11833.174,11117.545,1108.957,1892.575,,,,,2007-01-06 01:29:11.822
17.326477,-2065,109,-166,0,0,-1,11833.256,11117.461,1109.067,1892.485,,,,,2007-01-06 01:29:11.842
17.346466,-2060,126,-163,-2,-1,-1,11833.27,11117.429,1109.037,1892.606,,,,,2007-01-06 01:29:11.862
17.366485,-2066,114,-149,-1,-1,0,11833.203,11117.502,1109.118,1892.547,,,,,2007-01-06 01:29:11.882
17.386505,-2086,127,-138,1,0,-1,11833.254,11117.433,1109.252,1892.555,-830,-1125,2,,2007-01-06 01:29:11.903
17.406524,-2057,105,-137,0,-2,0,11833.265,11117.445,1109.323,1892.379,,,,,2007-01-06 01:29:11.923
17.426513,-2078,126,-159,-1,-2,-1,11833.257,11117.456,1109.417,1892.306,,,,,2007-01-06 01:29:11.943
17.446533,-2078,123,-166,0,1,-1,11833.292,11117.419,1109.459,1892.281,,,,,2007-01-06 01:29:11.963
17.466522,-2071,141,-144,0,0,-1,11833.281,11117.419,1109.49,1892.33,,,,,2007-01-06 01:29:11.983
17.486542,-2047,117,-161,-2,-1,0,11833.35,11117.359,1109.426,1892.288,-817,-1133,3,,2007-01-06 01:29:12.003
17.506561,-2064,109,-128,-3,-2,-1,11833.3,11117.408,1109.425,1892.314,,,,,2007-01-06 01:29:12.023
17.526581,-2078,113,-152,-1,0,-1,11833.215,11117.493,1109.398,1892.366,,,,,2007-01-06 01:29:12.043
17.5466,-2068,120,-142,-2,-1,1,11833.15,11117.596,1109.202,1892.278,,,,,2007-01-06 01:29:12.063
17.566589,-2075,124,-131,-1,-1,0,11833.176,11117.583,1109.29,1892.142,-817,-1133,3,34164,2007-01-06 01:29:12.083
17.586639,-2062,118,-158,-1,-1,-2,11833.112,11117.672,1109.071,1892.146,-809,-1137,-3,,2007-01-06 01:29:12.103
17.606628,-2082,127,-161,-1,-1,2,11833.117,11117.649,1109.029,1892.274,,,,,2007-01-06 01:29:12.123
17.626617,-2086,144,-147,-1,-1,0,11833,11117.767,1109.127,1892.258,,,,,2007-01-06 01:29:12.143
17.646637,-2057,122,-128,-1,-1,-2,11832.927,11117.841,1109.244,1892.21,,,,,2007-01-06 01:29:12.163
17.666656,-2079,111,-138,-1,-1,0,11832.824,11117.963,1109.301,1892.106,,,,,2007-01-06 01:29:12.183
17.686737,-2072,108,-143,-2,-2,1,11832.862,11117.912,1109.37,1892.127,-818,-1130,18,,2007-01-06 01:29:12.203
17.706695,-2066,121,-131,0,0,1,11832.89,11117.867,1109.384,1892.207,,,,,2007-01-06 01:29:12.223
17.726715,-2078,126,-148,1,0,-1,11832.95,11117.823,1109.537,1892,,,,,2007-01-06 01:29:12.243
17.746704,-2065,113,-145,1,0,-2,11833.005,11117.763,1109.545,1892.003,,,,,2007-01-06 01:29:12.263
17.766723,-2082,124,-176,-3,-2,-1,11832.993,11117.767,1109.621,1892.011,,,,,2007-01-06 01:29:12.283
17.786712,-2062,104,-151,-1,-1,0,11832.951,11117.793,1109.576,1892.146,-825,-1137,8,,2007-01-06 01:29:12.303
17.806732,-2084,136,-135,-2,-1,0,11832.972,11117.789,1109.57,1892.042,,,,,2007-01-06 01:29:12.323
17.826752,-2072,113,-151,-2,-1,0,11832.961,11117.784,1109.814,1891.998,,,,,2007-01-06 01:29:12.343
17.846771,-2072,118,-156,2,1,-1,11833.049,11117.668,1109.964,1892.046,,,,,2007-01-06 01:29:12.363
17.866791,-2070,114,-159,0,0,-1,11833.136,11117.619,1109.887,1891.827,,,,,2007-01-06 01:29:12.383
17.88678,-2067,112,-157,-1,-1,-1,11833.168,11117.609,1109.83,1891.723,-823,-1132,6,,2007-01-06 01:29:12.403
17.906799,-2064,116,-159,0,0,-2,11833.276,11117.476,1109.898,1891.79,,,,,2007-01-06 01:29:12.423
17.926819,-2058,118,-128,-2,-1,-1,11833.211,11117.521,1110.049,1891.842,,,,,2007-01-06 01:29:12.443
17.946838,-2062,113,-141,-1,0,0,11833.048,11117.695,1110.246,1891.728,,,,,2007-01-06 01:29:12.463
17.966827,-2067,126,-125,1,0,1,11833.081,11117.684,1110.183,1891.624,,,,,2007-01-06 01:29:12.483
17.986847,-2085,133,-147,-2,-1,0,11833.133,11117.613,1110.284,1891.648,-825,-1130,-1,,2007-01-06 01:29:12.503
18.006866,-2064,119,-170,-1,-1,0,11833.077,11117.654,1110.201,1891.81,,,,,2007-01-06 01:29:12.523
18.026886,-2077,129,-133,-1,-1,1,11833.118,11117.585,1110.314,1891.893,,,,,2007-01-06 01:29:12.543
18.046875,-2067,126,-169,0,0,0,11833.112,11117.614,1110.229,1891.811,,,,,2007-01-06 01:29:12.563
18.066894,-2072,115,-153,-1,-1,0,11833.221,11117.498,1110.136,1891.863,-825,-1130,-1,34179,2007-01-06 01:29:12.583
18.086914,-2076,117,-124,-2,-3,0,11833.408,11117.29,1110.2,1891.875,-812,-1131,7,,2007-01-06 01:29:12.603
18.106933,-2086,119,-143,-1,-1,-1,11833.417,11117.281,1110.101,1891.933,,,,,2007-01-06 01:29:12.623
18.126953,-2085,118,-173,-1,-1,-2,11833.448,11117.261,1110.156,1891.826,,,,,2007-01-06 01:29:12.643
18.146942,-2086,126,-148,0,0,-2,11833.455,11117.288,1110.101,1891.656,,,,,2007-01-06 01:29:12.663
18.166961,-2071,122,-152,0,0,0,11833.414,11117.322,1110.289,1891.6,,,,,2007-01-06 01:29:12.683
18.18695,-2067,123,-149,0,0,-2,11833.437,11117.306,1110.302,1891.546,-817,-1124,-2,,2007-01-06 01:29:12.703
18.20697,-2075,120,-163,-2,-2,-1,11833.519,11117.238,1110.288,1891.44,,,,,2007-01-06 01:29:12.723
18.22699,-2066,139,-143,-2,-2,-1,11833.457,11117.327,1110.228,1891.34,,,,,2007-01-06 01:29:12.743
18.247009,-2075,124,-144,-1,-1,0,11833.534,11117.223,1110.274,1891.437,,,,,2007-01-06 01:29:12.763
18.266998,-2074,130,-128,1,0,-1,11833.443,11117.297,1110.429,1891.484,,,,,2007-01-06 01:29:12.783
18.287018,-2074,113,-163,0,0,-1,11833.304,11117.419,1110.582,1891.543,-823,-1125,6,,2007-01-06 01:29:12.803
18.307037,-2058,119,-144,2,0,-1,11833.33,11117.435,1110.513,1891.329,,,,,2007-01-06 01:29:12.823
18.327057,-2071,112,-152,-2,-1,-1,11833.424,11117.33,1110.478,1891.377,,,,,2007-01-06 01:29:12.843
18.347046,-2062,113,-153,-1,-2,-2,11833.384,11117.379,1110.478,1891.339,,,,,2007-01-06 01:29:12.863
18.367065,-2064,117,-176,-2,0,1,11833.342,11117.407,1110.587,1891.373,,,,,2007-01-06 01:29:12.883
18.387085,-2066,124,-119,0,0,0,11833.485,11117.258,1110.538,1891.381,-820,-1135,11,,2007-01-06 01:29:12.903
18.407104,-2068,142,-127,-2,-1,1,11833.414,11117.354,1110.563,1891.249,,,,,2007-01-06 01:29:12.923
18.427124,-2070,120,-147,0,0,-1,11833.465,11117.31,1110.593,1891.169,,,,,2007-01-06 01:29:12.943
18.447113,-2083,125,-156,-3,-1,-2,11833.698,11117.045,1110.673,1891.225,,,,,2007-01-06 01:29:12.963
18.467132,-2077,120,-156,-2,-2,0,11833.735,11117.02,1110.616,1891.179,,,,,2007-01-06 01:29:12.983
18.487182,-2080,124,-139,-3,-1,-3,11833.794,11116.963,1110.588,1891.158,-829,-1131,3,,2007-01-06 01:29:13.003
18.507141,-2075,134,-150,-1,-2,-1,11833.726,11117.065,1110.473,1891.052,,,,,2007-01-06 01:29:13.023
18.52716,-2075,134,-133,-2,-2,-1,11833.615,11117.194,1110.541,1890.945,,,,,2007-01-06 01:29:13.043
18.54718,-2068,118,-116,-1,-1,0,11833.558,11117.262,1110.4,1890.987,,,,,2007-01-06 01:29:13.063
18.567169,-2072,106,-149,-3,-1,1,11833.559,11117.239,1110.426,1891.102,-829,-1131,3,34154,2007-01-06 01:29:13.083
18.587219,-2074,105,-158,0,0,2,11833.509,11117.263,1110.508,1891.228,-829,-1129,3,,2007-01-06 01:29:13.103
18.607208,-2058,131,-157,2,0,0,11833.431,11117.34,1110.638,1891.183,,,,,2007-01-06 01:29:13.123
18.627228,-2065,117,-149,-1,-1,0,11833.436,11117.316,1110.584,1891.326,,,,,2007-01-06 01:29:13.143
18.647247,-2073,103,-134,1,0,0,11833.401,11117.376,1110.642,1891.155,,,,,2007-01-06 01:29:13.163
18.667267,-2072,122,-142,-1,0,0,11833.441,11117.381,1110.601,1890.9,,,,,2007-01-06 01:29:13.183
18.687256,-2062,121,-162,-2,-1,-2,11833.481,11117.293,1110.749,1891.08,-823,-1125,13,,2007-01-06 01:29:13.203
18.707275,-2053,116,-140,2,1,0,11833.339,11117.405,1110.858,1891.245,,,,,2007-01-06 01:29:13.223
18.727264,-2073,110,-127,0,0,-1,11833.257,11117.504,1110.789,1891.218,,,,,2007-01-06 01:29:13.243
18.747284,-2080,127,-129,-1,-1,0,11833.251,11117.544,1110.707,1891.074,,,,,2007-01-06 01:29:13.263
18.767303,-2057,117,-124,-2,-1,0,11833.287,11117.513,1110.696,1891.039,,,,,2007-01-06 01:29:13.283
18.787323,-2073,136,-150,0,0,-1,11833.235,11117.571,1110.784,1890.968,-806,-1135,4,,2007-01-06 01:29:13.303
18.807342,-2096,114,-147,1,0,-2,11833.167,11117.648,1110.757,1890.956,,,,,2007-01-06 01:29:13.323
18.827331,-2075,129,-141,-1,0,0,11833.085,11117.77,1110.74,1890.76,,,,,2007-01-06 01:29:13.343
18.847381,-2099,115,-152,-3,0,-1,11833.11,11117.765,1110.624,1890.705,,,,,2007-01-06 01:29:13.363
18.86737,-2051,111,-157,-2,-3,1,11833.127,11117.731,1110.754,1890.718,,,,,2007-01-06 01:29:13.383
18.88739,-2048,114,-189,3,1,-2,11833.134,11117.74,1110.879,1890.549,-813,-1132,13,,2007-01-06 01:29:13.403
18.90747,-2070,111,-150,-1,-1,-1,11833.209,11117.645,1111.157,1890.472,,,,,2007-01-06 01:29:13.423
18.927398,-2063,122,-149,1,0,0,11833.104,11117.777,1111.07,1890.408,,,,,2007-01-06 01:29:13.443
18.947418,-2062,139,-128,-1,-1,2,11832.951,11117.899,1111.039,1890.664,,,,,2007-01-06 01:29:13.463
18.967438,-2061,122,-165,1,0,1,11832.804,11118.067,1110.985,1890.625,,,,,2007-01-06 01:29:13.483
18.987427,-2053,128,-150,0,0,0,11832.805,11118.089,1110.932,1890.52,-826,-1133,5,,2007-01-06 01:29:13.503
19.007446,-2074,110,-176,-3,-1,-1,11832.961,11117.952,1110.774,1890.449,,,,,2007-01-06 01:29:13.523
19.027466,-2073,111,-133,-3,-2,1,11833.005,11117.933,1110.781,1890.279,,,,,2007-01-06 01:29:13.543
19.047485,-2070,118,-139,-1,-1,-1,11832.945,11117.97,1110.882,1890.379,,,,,2007-01-06 01:29:13.563
19.067474,-2071,124,-153,0,0,-1,11832.92,11117.985,1110.932,1890.418,-826,-1133,5,34183,2007-01-06 01:29:13.583
19.087494,-2083,112,-125,0,0,1,11833.008,11117.865,1111.017,1890.523,-824,-1133,-2,,2007-01-06 01:29:13.603
19.107513,-2068,121,-148,0,-2,0,11833.076,11117.788,1111.007,1890.557,,,,,2007-01-06 01:29:13.624
19.127502,-2064,132,-169,-2,-1,1,11833.107,11117.798,1110.939,1890.339,,,,,2007-01-06 01:29:13.644
19.147522,-2087,115,-160,-3,-1,-1,11833.239,11117.642,1111.036,1890.374,,,,,2007-01-06 01:29:13.664
19.167572,-2075,118,-167,-1,-1,-4,11833.193,11117.678,1111.062,1890.439,,,,,2007-01-06 01:29:13.684
19.187561,-2055,109,-176,0,0,0,11833.226,11117.664,1110.972,1890.366,-812,-1133,3,,2007-01-06 01:29:13.704
19.20758,-2052,121,-136,-1,-1,-1,11833.222,11117.696,1110.977,1890.198,,,,,2007-01-06 01:29:13.724
19.227569,-2066,109,-102,-1,-1,-2,11833.205,11117.73,1111.09,1890.036,,,,,2007-01-06 01:29:13.744
19.247589,-2063,124,-103,-2,-1,-2,11833.266,11117.646,1111.292,1890.03,,,,,2007-01-06 01:29:13.764
19.267608,-2069,117,-154,-1,-2,0,11833.242,11117.662,1111.501,1889.963,,,,,2007-01-06 01:29:13.784
19.287597,-2066,133,-114,-2,-1,-1,11833.351,11117.575,1111.494,1889.802,-820,-1137,2,,2007-01-06 01:29:13.804
19.307617,-2057,130,-148,0,0,-1,11833.283,11117.645,1111.656,1889.72,,,,,2007-01-06 01:29:13.824
19.327637,-2079,115,-155,1,0,-2,11833.261,11117.695,1111.752,1889.502,,,,,2007-01-06 01:29:13.844
19.347656,-2079,133,-139,-3,-1,-1,11833.339,11117.587,1111.879,1889.578,,,,,2007-01-06 01:29:13.864
19.367676,-2057,116,-177,0,0,0,11833.391,11117.543,1111.908,1889.496,,,,,2007-01-06 01:29:13.884
19.387695,-2082,127,-159,-2,-1,0,11833.495,11117.465,1111.818,1889.353,-823,-1132,4,,2007-01-06 01:29:13.904
19.407684,-2058,122,-126,-2,-2,0,11833.414,11117.596,1111.77,1889.115,,,,,2007-01-06 01:29:13.924
19.427704,-2077,118,-171,0,0,1,11833.384,11117.655,1111.741,1888.978,,,,,2007-01-06 01:29:13.944
19.447723,-2070,113,-133,0,0,0,11833.428,11117.597,1111.929,1888.931,,,,,2007-01-06 01:29:13.964
19.467712,-2078,116,-166,0,0,-1,11833.383,11117.639,1111.9,1888.983,,,,,2007-01-06 01:29:13.984
19.487762,-2060,113,-186,-1,-1,2,11833.521,11117.473,1112.093,1888.985,-818,-1139,4,,2007-01-06 01:29:14.004
19.507751,-2077,121,-136,-1,-2,-1,11833.735,11117.251,1112.306,1888.827,,,,,2007-01-06 01:29:14.024
19.527771,-2068,112,-149,-1,-2,-2,11833.768,11117.201,1112.435,1888.835,,,,,2007-01-06 01:29:14.044
19.54776,-2061,110,-151,1,0,0,11833.709,11117.253,1112.487,1888.862,,,,,2007-01-06 01:29:14.064
19.567779,-2065,115,-138,0,0,-2,11833.617,11117.351,1112.542,1888.832,-818,-1139,4,34158,2007-01-06 01:29:14.084
19.587799,-2065,119,-164,-1,-1,-2,11833.642,11117.363,1112.539,1888.607,-827,-1135,2,,2007-01-06 01:29:14.104
19.607818,-2084,119,-162,-1,-1,-1,11833.768,11117.233,1112.617,1888.539,,,,,2007-01-06 01:29:14.124
19.627807,-2080,111,-143,-2,-2,-1,11833.677,11117.301,1112.732,1888.641,,,,,2007-01-06 01:29:14.144
19.647827,-2076,112,-143,1,1,0,11833.818,11117.15,1112.753,1888.637,,,,,2007-01-06 01:29:14.164
19.667846,-2075,132,-157,-1,-2,0,11833.944,11117.044,1112.616,1888.549,,,,,2007-01-06 01:29:14.184
19.687866,-2074,119,-148,-2,-1,0,11833.902,11117.091,1112.674,1888.506,-826,-1126,5,,2007-01-06 01:29:14.204
19.707886,-2064,133,-164,0,0,0,11833.925,11117.049,1112.63,1888.633,,,,,2007-01-06 01:29:14.224
19.727875,-2066,121,-140,0,0,-1,11833.974,11117.013,1112.589,1888.56,,,,,2007-01-06 01:29:14.244
19.747894,-2073,132,-149,-3,-1,0,11834.008,11116.99,1112.542,1888.511,,,,,2007-01-06 01:29:14.264
19.767914,-2063,124,-126,-1,-1,1,11833.962,11117.071,1112.449,1888.377,,,,,2007-01-06 01:29:14.284
19.787903,-2075,128,-155,0,0,-1,11834.002,11117.033,1112.532,1888.302,-812,-1129,-2,,2007-01-06 01:29:14.304
19.807953,-2075,128,-161,0,-1,-1,11834.079,11116.951,1112.556,1888.289,,,,,2007-01-06 01:29:14.324
19.827942,-2090,113,-132,-2,-2,-1,11834.01,11116.996,1112.65,1888.399,,,,,2007-01-06 01:29:14.344
19.847961,-2074,125,-142,1,0,-1,11833.981,11116.998,1112.727,1888.523,,,,,2007-01-06 01:29:14.364
19.86795,-2075,113,-162,0,0,0,11833.895,11117.104,1112.829,1888.374,,,,,2007-01-06 01:29:14.384
19.88797,-2073,113,-148,-2,0,0,11833.878,11117.144,1112.761,1888.286,-822,-1131,0,,2007-01-06 01:29:14.404
19.907989,-2050,102,-144,-3,-1,0,11833.853,11117.18,1112.667,1888.29,,,,,2007-01-06 01:29:14.424
19.928009,-2073,128,-159,-1,-1,1,11833.726,11117.326,1112.746,1888.179,,,,,2007-01-06 01:29:14.444
19.947998,-2067,129,-147,0,1,-3,11833.677,11117.373,1112.731,1888.217,,,,,2007-01-06 01:29:14.464
19.968017,-2073,120,-136,0,0,0,11833.686,11117.378,1112.799,1888.094,,,,,2007-01-06 01:29:14.484
19.988037,-2068,115,-154,0,-1,0,11833.651,11117.383,1112.854,1888.246,-824,-1129,3,,2007-01-06 01:29:14.504
20.008026,-2062,141,-143,-1,-1,0,11833.864,11117.161,1113.045,1888.114,,,,,2007-01-06 01:29:14.524
20.028076,-2074,118,-158,-1,-2,-2,11833.976,11117.055,1112.973,1888.075,,,,,2007-01-06 01:29:14.544
20.048065,-2056,122,-153,-2,-2,0,11834.118,11116.888,1113.206,1888.028,,,,,2007-01-06 01:29:14.564
20.068085,-2072,111,-137,0,-2,-1,11834.021,11116.972,1113.271,1888.103,-824,-1129,3,34175,2007-01-06 01:29:14.584
20.088104,-2076,119,-137,-1,-1,1,11834.003,11116.965,1113.403,1888.18,-819,-1126,7,,2007-01-06 01:29:14.604
20.108093,-2065,133,-136,0,0,1,11834.068,11116.885,1113.564,1888.152,,,,,2007-01-06 01:29:14.624
20.128174,-2069,123,-153,-1,-1,-1,11834.124,11116.819,1113.494,1888.23,,,,,2007-01-06 01:29:14.644
20.148132,-2062,125,-134,-2,-1,-2,11834.156,11116.744,1113.827,1888.272,,,,,2007-01-06 01:29:14.664
20.168152,-2085,127,-151,1,0,-1,11834.11,11116.763,1114.04,1888.318,,,,,2007-01-06 01:29:14.684
20.188141,-2079,122,-198,-1,-2,-1,11834.124,11116.737,1114.203,1888.289,-823,-1132,6,,2007-01-06 01:29:14.704
20.20816,-2072,115,-151,-3,-1,-2,11834.249,11116.622,1114.059,1888.27,,,,,2007-01-06 01:29:14.724
20.22818,-2059,129,-141,-1,-1,-1,11834.175,11116.684,1114.046,1888.376,,,,,2007-01-06 01:29:14.744
20.248169,-2052,119,-147,0,0,1,11834.092,11116.77,1114.19,1888.303,,,,,2007-01-06 01:29:14.764
20.268188,-2069,119,-155,1,0,-2,11834.064,11116.801,1114.117,1888.342,,,,,2007-01-06 01:29:14.784
20.288208,-2073,118,-131,-1,-1,0,11834.151,11116.733,1114.063,1888.232,-822,-1140,-2,,2007-01-06 01:29:14.804
20.308227,-2071,133,-109,-2,-1,0,11834.122,11116.773,1114.063,1888.179,,,,,2007-01-06 01:29:14.824
20.328247,-2067,125,-139,1,0,0,11834.092,11116.826,1114.105,1888.027,,,,,2007-01-06 01:29:14.844
20.348236,-2067,122,-139,-2,-1,-2,11834.028,11116.865,1114.182,1888.152,,,,,2007-01-06 01:29:14.864
20.368255,-2077,121,-154,-1,-1,3,11834.037,11116.883,1114.044,1888.068,,,,,2007-01-06 01:29:14.884
20.388275,-2067,126,-165,-2,-1,1,11834.079,11116.857,1113.905,1888.048,-825,-1125,-1,,2007-01-06 01:29:14.904
20.408294,-2055,117,-130,-1,0,2,11834.189,11116.766,1114.024,1887.816,,,,,2007-01-06 01:29:14.924
20.428283,-2077,126,-124,0,0,-3,11834.21,11116.743,1114.32,1887.651,,,,,2007-01-06 01:29:14.944
20.448303,-2053,124,-145,0,0,-1,11834.09,11116.865,1114.301,1887.692,,,,,2007-01-06 01:29:14.964
20.468323,-2078,128,-146,-1,-1,1,11834.183,11116.769,1114.228,1887.72,,,,,2007-01-06 01:29:14.984
20.488403,-2070,113,-136,-2,-1,-2,11834.206,11116.767,1114.004,1887.722,-826,-1124,-4,,2007-01-06 01:29:15.004
20.508331,-2063,116,-164,-1,0,3,11834.161,11116.813,1114.19,1887.62,,,,,2007-01-06 01:29:15.024
20.528351,-2070,134,-168,0,0,-1,11834.224,11116.766,1114.213,1887.488,,,,,2007-01-06 01:29:15.044
20.54837,-2076,118,-150,-2,-1,-2,11834.352,11116.683,1114.116,1887.231,,,,,2007-01-06 01:29:15.064
20.568359,-2039,127,-133,-2,-1,0,11834.197,11116.879,1113.887,1887.185,-826,-1124,-4,34164,2007-01-06 01:29:15.084
20.588379,-2063,116,-154,-3,-1,2,11834.299,11116.786,1113.981,1887.037,-823,-1127,8,,2007-01-06 01:29:15.104
20.608398,-2077,119,-148,-1,-2,-1,11834.358,11116.727,1114.054,1886.972,,,,,2007-01-06 01:29:15.124
20.628418,-2096,133,-134,-2,-1,-1,11834.322,11116.784,1114.08,1886.851,,,,,2007-01-06 01:29:15.144
20.648407,-2078,113,-150,2,0,-1,11834.329,11116.775,1114.092,1886.852,,,,,2007-01-06 01:29:15.164
20.668457,-2078,113,-155,-1,-1,-1,11834.397,11116.715,1114.16,1886.738,,,,,2007-01-06 01:29:15.184
20.688446,-2059,124,-151,-2,-2,-1,11834.474,11116.633,1114.068,1886.794,-818,-1137,8,,2007-01-06 01:29:15.204
20.708435,-2071,133,-147,-2,-1,0,11834.599,11116.494,1114.17,1886.766,,,,,2007-01-06 01:29:15.224
20.728454,-2083,122,-139,1,-1,-1,11834.794,11116.264,1114.32,1886.806,,,,,2007-01-06 01:29:15.244
20.748474,-2066,124,-141,-1,-3,0,11834.704,11116.368,1114.313,1886.767,,,,,2007-01-06 01:29:15.264
20.768493,-2085,125,-149,0,0,0,11834.656,11116.382,1114.44,1886.906,,,,,2007-01-06 01:29:15.284
20.788482,-2075,139,-142,1,0,0,11834.762,11116.266,1114.273,1887.028,-831,-1124,7,,2007-01-06 01:29:15.304
20.808502,-2069,105,-145,-1,-3,0,11834.798,11116.221,1114.214,1887.102,,,,,2007-01-06 01:29:15.325
20.828522,-2054,116,-177,-3,-1,-1,11834.792,11116.242,1114.185,1887.026,,,,,2007-01-06 01:29:15.345
20.848541,-2068,113,-151,-1,-1,-1,11834.832,11116.156,1114.208,1887.277,,,,,2007-01-06 01:29:15.365
20.868561,-2080,124,-153,1,0,1,11834.822,11116.159,1114.179,1887.332,,,,,2007-01-06 01:29:15.385
20.88858,-2088,114,-158,-2,-1,0,11834.819,11116.162,1114.084,1887.389,-822,-1136,10,,2007-01-06 01:29:15.405
20.908569,-2080,127,-150,0,0,1,11834.803,11116.157,1114.106,1887.51,,,,,2007-01-06 01:29:15.425
20.928589,-2074,120,-168,0,1,1,11834.899,11116.062,1114.068,1887.49,,,,,2007-01-06 01:29:15.445
20.948608,-2071,129,-145,-2,-3,-2,11834.855,11116.111,1113.878,1887.591,,,,,2007-01-06 01:29:15.465
20.968597,-2063,122,-152,0,0,0,11834.798,11116.164,1113.832,1887.655,,,,,2007-01-06 01:29:15.485
20.988617,-2054,130,-163,-1,-1,0,11834.792,11116.21,1113.838,1887.426,-825,-1137,-1,,2007-01-06 01:29:15.505
21.008636,-2077,129,-159,-1,-1,0,11834.791,11116.205,1113.8,1887.485,,,,,2007-01-06 01:29:15.525
21.028656,-2074,118,-136,-1,-2,1,11834.808,11116.205,1113.688,1887.441,,,,,2007-01-06 01:29:15.545
21.048645,-2086,117,-167,-1,-1,1,11834.795,11116.232,1113.603,1887.414,,,,,2007-01-06 01:29:15.565
21.068664,-2072,128,-145,-3,-2,-2,11834.888,11116.159,1113.565,1887.282,-825,-1137,-1,34179,2007-01-06 01:29:15.585
21.088684,-2053,116,-150,-3,-1,0,11834.822,11116.242,1113.65,1887.156,-833,-1122,0,,2007-01-06 01:29:15.605
21.108703,-2081,128,-176,-1,1,-3,11834.778,11116.267,1113.688,1887.268,,,,,2007-01-06 01:29:15.625
21.128692,-2071,123,-135,0,0,-1,11834.765,11116.279,1113.855,1887.181,,,,,2007-01-06 01:29:15.645
21.148712,-2097,108,-140,0,0,-1,11834.792,11116.264,1113.827,1887.11,,,,,2007-01-06 01:29:15.665
21.168731,-2076,110,-154,-2,-1,0,11834.71,11116.327,1113.964,1887.178,,,,,2007-01-06 01:29:15.685
21.188751,-2065,132,-142,2,1,0,11834.733,11116.253,1113.943,1887.48,-826,-1138,7,,2007-01-06 01:29:15.705
21.208771,-2071,120,-145,1,0,1,11834.646,11116.332,1113.948,1887.556,,,,,2007-01-06 01:29:15.725
21.22876,-2068,118,-129,1,0,-1,11834.64,11116.374,1113.907,1887.369,,,,,2007-01-06 01:29:15.745
21.248779,-2072,127,-163,-2,-2,-1,11834.677,11116.35,1113.805,1887.335,,,,,2007-01-06 01:29:15.765
21.268768,-2078,113,-162,-2,-1,2,11834.827,11116.163,1113.672,1887.58,,,,,2007-01-06 01:29:15.785
21.288788,-2089,114,-117,1,0,0,11834.834,11116.146,1113.65,1887.647,-818,-1130,8,,2007-01-06 01:29:15.805
21.308807,-2051,120,-148,-2,-1,0,11834.723,11116.259,1113.682,1887.659,,,,,2007-01-06 01:29:15.825
21.328827,-2064,119,-146,-1,-1,-3,11834.651,11116.375,1113.621,1887.46,,,,,2007-01-06 01:29:15.845
21.348907,-2067,124,-138,-1,-1,0,11834.748,11116.3,1113.524,1887.351,,,,,2007-01-06 01:29:15.865
21.368835,-2053,123,-140,-2,-1,-1,11834.756,11116.256,1113.576,1887.527,,,,,2007-01-06 01:29:15.885
21.388855,-2080,129,-157,2,0,1,11834.739,11116.239,1113.753,1887.639,-823,-1135,8,,2007-01-06 01:29:15.905
21.408874,-2073,119,-148,0,0,0,11834.871,11116.097,1113.824,1887.6,,,,,2007-01-06 01:29:15.925
21.428894,-2074,118,-141,0,-2,-1,11834.865,11116.111,1113.734,1887.61,,,,,2007-01-06 01:29:15.945
21.448883,-2059,116,-139,0,0,-1,11835.029,11115.9,1113.764,1887.807,,,,,2007-01-06 01:29:15.965
21.468902,-2062,118,-167,-1,-1,1,11834.954,11115.996,1113.546,1887.839,,,,,2007-01-06 01:29:15.985
21.488983,-2068,123,-146,0,1,-1,11834.985,11115.958,1113.572,1887.858,-819,-1129,7,,2007-01-06 01:29:16.005
21.508941,-2072,118,-155,0,0,0,11834.962,11115.986,1113.59,1887.822,,,,,2007-01-06 01:29:16.025
21.528961,-2083,119,-146,-3,-1,-2,11834.923,11116.042,1113.609,1887.729,,,,,2007-01-06 01:29:16.045
21.54895,-2057,137,-169,-1,-1,0,11834.873,11116.086,1113.593,1887.79,,,,,2007-01-06 01:29:16.065
21.56897,-2092,123,-132,-1,-1,0,11834.839,11116.133,1113.562,1887.743,-819,-1129,7,34164,2007-01-06 01:29:16.085
21.588989,-2065,132,-124,1,1,-2,11834.877,11116.063,1113.532,1887.939,-822,-1124,3,,2007-01-06 01:29:16.105
21.608978,-2081,127,-150,0,1,0,11835.05,11115.878,1113.742,1887.82,,,,,2007-01-06 01:29:16.125
21.628998,-2070,123,-149,-2,-1,0,11835.061,11115.874,1113.806,1887.736,,,,,2007-01-06 01:29:16.145
21.649017,-2066,118,-131,-2,-1,-1,11835.17,11115.777,1113.74,1887.664,,,,,2007-01-06 01:29:16.165
21.669037,-2074,119,-192,-3,-2,0,11835.144,11115.79,1113.791,1887.721,,,,,2007-01-06 01:29:16.185
21.689026,-2072,123,-151,1,0,0,11835.194,11115.746,1113.617,1887.764,-818,-1137,4,,2007-01-06 01:29:16.205
21.709045,-2073,126,-177,-2,-1,1,11835.205,11115.74,1113.641,1887.721,,,,,2007-01-06 01:29:16.225
21.729065,-2079,130,-157,0,0,-2,11835.249,11115.679,1113.69,1887.776,,,,,2007-01-06 01:29:16.245
21.749084,-2067,109,-139,-1,-1,1,11835.229,11115.754,1113.251,1887.715,,,,,2007-01-06 01:29:16.265
21.769073,-2076,111,-133,-3,-2,0,11835.483,11115.545,1113.299,1887.323,,,,,2007-01-06 01:29:16.285
21.789093,-2066,126,-151,-1,-3,-3,11835.635,11115.373,1113.363,1887.352,-830,-1132,6,,2007-01-06 01:29:16.305
21.809112,-2075,107,-147,-2,-2,0,11835.623,11115.376,1113.375,1887.394,,,,,2007-01-06 01:29:16.325
21.829132,-2071,118,-144,-1,-1,-2,11835.588,11115.401,1113.453,1887.427,,,,,2007-01-06 01:29:16.345
21.849121,-2082,117,-161,0,1,1,11835.599,11115.382,1113.452,1887.472,,,,,2007-01-06 01:29:16.365
21.86914,-2065,126,-136,1,-1,0,11835.508,11115.465,1113.518,1887.513,,,,,2007-01-06 01:29:16.385
21.88916,-2085,120,-153,-1,0,0,11835.523,11115.424,1113.558,1887.635,-826,-1133,0,,2007-01-06 01:29:16.405
21.909149,-2068,118,-153,-3,-1,-1,11835.585,11115.34,1113.44,1887.808,,,,,2007-01-06 01:29:16.425
21.929168,-2058,120,-153,0,0,-1,11835.554,11115.375,1113.569,1887.722,,,,,2007-01-06 01:29:16.445
21.949188,-2062,110,-152,1,0,-2,11835.344,11115.582,1113.748,1887.712,,,,,2007-01-06 01:29:16.465
21.969208,-2058,129,-161,1,0,-1,11835.295,11115.608,1113.903,1887.78,,,,,2007-01-06 01:29:16.485
21.989227,-2055,131,-166,1,0,0,11835.268,11115.616,1113.872,1887.918,-820,-1123,8,,2007-01-06 01:29:16.505
22.009216,-2069,134,-156,0,0,2,11835.17,11115.749,1113.813,1887.786,,,,,2007-01-06 01:29:16.525
22.029236,-2077,120,-142,-2,-1,-1,11835.232,11115.693,1113.766,1887.753,,,,,2007-01-06 01:29:16.545
22.049225,-2078,135,-147,-2,-1,-2,11835.266,11115.665,1113.815,1887.677,,,,,2007-01-06 01:29:16.565
22.069244,-2082,128,-136,-2,-1,1,11835.386,11115.496,1113.912,1887.862,-820,-1123,8,34160,2007-01-06 01:29:16.585
22.089264,-2074,123,-156,1,0,0,11835.381,11115.494,1113.91,1887.906,-814,-1133,10,,2007-01-06 01:29:16.605
22.109283,-2068,101,-143,-1,-1,0,11835.362,11115.505,1113.755,1888.05,,,,,2007-01-06 01:29:16.625
22.129303,-2073,128,-136,-2,0,1,11835.352,11115.511,1113.658,1888.136,,,,,2007-01-06 01:29:16.645
22.149292,-2077,125,-159,-1,-1,0,11835.187,11115.645,1113.756,1888.328,,,,,2007-01-06 01:29:16.665
22.169311,-2078,130,-122,-1,-1,0,11835.051,11115.786,1113.693,1888.38,,,,,2007-01-06 01:29:16.685
22.189331,-2056,118,-148,0,0,0,11835.09,11115.709,1113.73,1888.569,-823,-1130,-1,,2007-01-06 01:29:16.705
22.20935,-2063,116,-147,0,-1,1,11834.98,11115.867,1113.542,1888.44,,,,,2007-01-06 01:29:16.725
22.22937,-2067,108,-168,-3,-1,-2,11835.127,11115.723,1113.516,1888.382,,,,,2007-01-06 01:29:16.745
22.249359,-2074,119,-161,-3,-1,-1,11835.018,11115.8,1113.533,1888.603,,,,,2007-01-06 01:29:16.765
22.269409,-2073,120,-151,1,1,1,11835.017,11115.82,1113.473,1888.527,,,,,2007-01-06 01:29:16.785
22.289398,-2084,123,-149,-1,0,1,11835.046,11115.753,1113.529,1888.702,-820,-1135,6,,2007-01-06 01:29:16.805
22.309418,-2080,111,-152,1,0,1,11835.045,11115.728,1113.56,1888.838,,,,,2007-01-06 01:29:16.825
22.329407,-2076,128,-173,-2,-1,0,11835.03,11115.722,1113.511,1888.997,,,,,2007-01-06 01:29:16.845
22.349426,-2081,126,-121,-1,-1,0,11834.923,11115.8,1113.545,1889.194,,,,,2007-01-06 01:29:16.865
22.369446,-2081,118,-169,0,0,-1,11834.848,11115.857,1113.628,1889.276,,,,,2007-01-06 01:29:16.885
22.389465,-2078,124,-156,1,0,-1,11834.759,11115.947,1113.556,1889.344,-832,-1132,6,,2007-01-06 01:29:16.905
22.409454,-2061,126,-125,0,0,-1,11834.8,11115.919,1113.443,1889.317,,,,,2007-01-06 01:29:16.925
22.429474,-2073,128,-155,-1,-1,0,11834.793,11115.931,1113.564,1889.222,,,,,2007-01-06 01:29:16.945
22.449493,-2077,107,-156,-2,-1,0,11834.697,11116.033,1113.523,1889.249,,,,,2007-01-06 01:29:16.965
22.469513,-2080,120,-145,0,0,-2,11834.654,11116.089,1113.629,1889.121,,,,,2007-01-06 01:29:16.986
22.489502,-2065,118,-152,-1,0,-2,11834.676,11116.09,1113.622,1888.985,-825,-1130,6,,2007-01-06 01:29:17.006
22.509521,-2098,122,-159,-1,-1,-1,11834.672,11116.074,1113.602,1889.114,,,,,2007-01-06 01:29:17.026
22.529541,-2058,101,-181,1,0,-1,11834.671,11116.108,1113.421,1889.028,,,,,2007-01-06 01:29:17.046
22.54953,-2061,128,-145,-3,-1,-1,11834.725,11116.077,1113.327,1888.928,,,,,2007-01-06 01:29:17.066
22.56961,-2071,128,-141,0,0,0,11834.659,11116.147,1113.174,1889.019,-825,-1130,6,34189,2007-01-06 01:29:17.086
22.589569,-2055,121,-116,-1,0,0,11834.606,11116.224,1113.101,1888.944,-813,-1144,-1,,2007-01-06 01:29:17.106
22.609588,-2064,126,-158,-1,-1,0,11834.59,11116.25,1113.181,1888.839,,,,,2007-01-06 01:29:17.126
22.629608,-2077,134,-159,0,0,-2,11834.481,11116.366,1113.171,1888.847,,,,,2007-01-06 01:29:17.146
22.649597,-2079,115,-129,0,2,1,11834.493,11116.327,1113.211,1888.979,,,,,2007-01-06 01:29:17.166
22.669616,-2073,112,-140,0,0,0,11834.486,11116.364,1113.142,1888.848,,,,,2007-01-06 01:29:17.186
22.689636,-2056,133,-147,-1,-1,-2,11834.354,11116.516,1113.116,1888.795,-826,-1136,5,,2007-01-06 01:29:17.206
22.709625,-2068,116,-125,-2,-1,0,11834.237,11116.624,1113,1888.962,,,,,2007-01-06 01:29:17.226
22.729645,-2096,116,-149,-1,0,2,11834.266,11116.612,1112.938,1888.887,,,,,2007-01-06 01:29:17.246
22.749664,-2068,131,-145,-1,-1,-2,11834.361,11116.513,1113.054,1888.8,,,,,2007-01-06 01:29:17.266
22.769684,-2062,118,-142,-1,-1,-2,11834.371,11116.469,1113.119,1888.96,,,,,2007-01-06 01:29:17.286
22.789703,-2077,118,-148,1,1,0,11834.264,11116.549,1113.327,1889.044,-826,-1131,7,,2007-01-06 01:29:17.306
22.809692,-2076,109,-148,0,0,0,11834.35,11116.465,1113.37,1888.973,,,,,2007-01-06 01:29:17.326
22.829712,-2080,111,-163,0,1,0,11834.396,11116.383,1113.316,1889.193,,,,,2007-01-06 01:29:17.346
22.849731,-2061,116,-137,0,-2,3,11834.498,11116.266,1113.437,1889.172,,,,,2007-01-06 01:29:17.366
22.869751,-2065,123,-172,-2,-1,0,11834.517,11116.253,1113.336,1889.189,,,,,2007-01-06 01:29:17.386
22.88974,-2071,122,-154,0,0,-2,11834.46,11116.325,1113.316,1889.135,-819,-1126,5,,2007-01-06 01:29:17.406
22.909759,-2081,116,-145,1,1,-1,11834.48,11116.326,1113.152,1889.101,,,,,2007-01-06 01:29:17.426
22.929779,-2074,124,-130,-2,-1,1,11834.424,11116.409,1113.278,1888.891,,,,,2007-01-06 01:29:17.446
22.949768,-2064,108,-149,1,0,-2,11834.2,11116.614,1113.263,1889.094,,,,,2007-01-06 01:29:17.466
22.969787,-2069,114,-152,0,1,2,11834.146,11116.664,1113.253,1889.151,,,,,2007-01-06 01:29:17.486
22.989807,-2088,143,-158,0,1,-1,11834.157,11116.678,1113.14,1889.062,-822,-1136,7,,2007-01-06 01:29:17.506
23.009826,-2074,123,-183,-1,-1,-1,11834.186,11116.666,1113.046,1889.008,,,,,2007-01-06 01:29:17.526
23.029815,-2073,127,-138,-2,-1,0,11834.178,11116.698,1112.932,1888.931,,,,,2007-01-06 01:29:17.546
23.049835,-2085,111,-132,-2,-1,-1,11834.097,11116.754,1112.907,1889.126,,,,,2007-01-06 01:29:17.566
23.069855,-2066,119,-165,-1,-1,-1,11834.117,11116.723,1113.023,1889.116,-822,-1136,7,34160,2007-01-06 01:29:17.586
23.089874,-2057,124,-142,2,1,1,11834.158,11116.663,1113.187,1889.114,-826,-1138,12,,2007-01-06 01:29:17.606
23.109863,-2073,134,-153,0,-1,-2,11834.245,11116.58,1113.26,1889.014,,,,,2007-01-06 01:29:17.626
23.129883,-2076,123,-139,-2,-1,0,11834.338,11116.464,1113.118,1889.201,,,,,2007-01-06 01:29:17.646
23.149902,-2059,116,-148,-1,-2,3,11834.326,11116.474,1113.061,1889.249,,,,,2007-01-06 01:29:17.666
23.169891,-2076,119,-146,1,0,0,11834.456,11116.339,1113.04,1889.236,,,,,2007-01-06 01:29:17.686
23.189911,-2075,108,-149,0,0,-1,11834.523,11116.244,1113.085,1889.353,-818,-1132,4,,2007-01-06 01:29:17.706
23.20993,-2074,114,-132,-1,-1,1,11834.475,11116.292,1113.009,1889.417,,,,,2007-01-06 01:29:17.726
23.22995,-2074,134,-148,-1,-1,0,11834.45,11116.305,1112.928,1889.542,,,,,2007-01-06 01:29:17.746
23.249969,-2077,126,-159,-3,-1,1,11834.351,11116.413,1112.781,1889.612,,,,,2007-01-06 01:29:17.766
23.269958,-2060,136,-156,0,0,2,11834.462,11116.284,1112.846,1889.644,,,,,2007-01-06 01:29:17.786
23.289978,-2079,123,-170,0,0,-1,11834.508,11116.217,1112.863,1889.737,-820,-1132,13,,2007-01-06 01:29:17.806
23.309997,-2070,127,-119,-2,-1,-1,11834.541,11116.168,1112.763,1889.876,,,,,2007-01-06 01:29:17.826
23.330017,-2084,122,-131,-1,-1,0,11834.534,11116.188,1112.717,1889.828,,,,,2007-01-06 01:29:17.846
23.350006,-2045,124,-152,-2,-1,0,11834.459,11116.257,1112.683,1889.913,,,,,2007-01-06 01:29:17.866
23.370025,-2069,122,-176,-2,-1,-1,11834.539,11116.149,1112.895,1889.921,,,,,2007-01-06 01:29:17.886
23.390045,-2075,120,-158,-1,-2,-2,11834.673,11116.047,1112.809,1889.736,-822,-1131,0,,2007-01-06 01:29:17.906
23.410064,-2074,114,-158,-2,-1,1,11834.646,11116.126,1112.605,1889.563,,,,,2007-01-06 01:29:17.926
23.430054,-2083,118,-171,-1,-1,0,11834.695,11116.079,1112.646,1889.503,,,,,2007-01-06 01:29:17.946
23.450073,-2089,123,-149,-1,-1,-1,11834.784,11115.95,1112.7,1889.675,,,,,2007-01-06 01:29:17.966
23.470093,-2076,119,-168,-1,-2,0,11835.07,11115.661,1112.416,1889.751,,,,,2007-01-06 01:29:17.986
23.490112,-2071,129,-138,-1,-4,2,11835.174,11115.545,1112.175,1889.927,-817,-1129,7,,2007-01-06 01:29:18.006
23.510101,-2063,123,-120,-1,-2,2,11835.234,11115.441,1112.174,1890.161,,,,,2007-01-06 01:29:18.026
23.530121,-2096,130,-146,-2,-1,0,11835.245,11115.419,1112.136,1890.239,,,,,2007-01-06 01:29:18.046
23.55014,-2069,113,-143,0,0,0,11835.312,11115.339,1112.127,1890.295,,,,,2007-01-06 01:29:18.066
23.57016,-2072,124,-174,-1,-1,-1,11835.353,11115.306,1112.081,1890.265,-817,-1129,7,34138,2007-01-06 01:29:18.086
23.590149,-2062,118,-151,0,0,0,11835.361,11115.302,1111.851,1890.373,-811,-1132,-3,,2007-01-06 01:29:18.106
