;Title, http://www.gcdataconcepts.com, HAM-IMU, MPU-9250
;Version, 1191, Build date, Nov 15 2016,  SN:CCDC30161C28AA2
;Start_time, 2018-06-20, 08:20:05.436
;Temperature, -999.00, deg C,  Vbat, 4088, mv
;MPU SR, 200,Hz,  Accel sens, 2048,counts/g, Gyro sens, 16,counts/dps,  Mag SR, 10,Hz,  Mag sens, 1666,counts/mT
;Deadband, 0, counts
;DeadbandTimeout, 5,sec
;Time, Ax, Ay, Az, Gx, Gy, Gz, Qw, Qx, Qy, Qz, Mx, My, Mz, T
0.003387,-137,2130,-341,-136,-922,-54,8361.785,-7015.294,-7360.664,-9753.064
0.009674,-110,2073,-336,-175,-908,-47,8278.869,-7111.979,-7286.925,-9808.987
0.029663,-47,2071,-352,-191,-889,-14,8198.756,-7210.482,-7213.359,-9858.611
0.049652,-14,2102,-328,-212,-858,16,8120.841,-7310.260,-7137.794,-9904.512
0.069641,-47,2176,-304,-218,-864,33,8041.922,-7409.948,-7062.580,-9948.645,500,181,165
0.089630,-48,2122,-326,-224,-864,23,7960.983,-7507.744,-6989.496,-9991.941
0.109619,-83,2089,-353,-229,-862,11,7877.707,-7602.232,-6915.944,-10037.576
0.129669,-60,2071,-333,-202,-868,-10,7790.112,-7691.813,-6838.182,-10090.831
0.149597,-157,2046,-271,-153,-898,-56,7698.020,-7775.105,-6757.291,-10151.979
0.169586,-182,2105,-277,-91,-902,-98,7601.835,-7848.925,-6674.031,-10222.485,511,185,169
0.189575,-125,2045,-242,-56,-913,-146,7502.549,-7916.757,-6591.897,-10296.554
0.209564,-126,2026,-273,-28,-902,-173,7402.891,-7979.341,-6508.762,-10372.982
0.229522,-136,2152,-336,-16,-915,-189,7302.034,-8039.378,-6422.667,-10451.482
0.249511,-145,2089,-292,-1,-927,-190,7203.077,-8096.359,-6337.318,-10527.985
0.269500,-188,2122,-280,12,-903,-187,7107.087,-8148.952,-6254.126,-10602.133,517,186,179
0.289489,-83,2083,-281,21,-864,-192,7009.362,-8199.472,-6171.951,-10676.140,517,186,179,33126
0.309509,-82,2089,-350,19,-855,-212,6912.424,-8248.353,-6090.597,-10748.168
0.329467,-104,2064,-265,13,-843,-203,6820.215,-8296.294,-6009.670,-10815.520
0.349456,-108,2028,-362,25,-817,-166,6731.357,-8345.346,-5928.003,-10878.338
0.369445,-130,2023,-287,10,-805,-142,6643.138,-8396.304,-5843.635,-10938.836,512,191,198
0.389434,-195,2065,-280,2,-817,-112,6557.817,-8446.844,-5756.058,-10997.686
0.409423,-172,2106,-326,21,-818,-92,6472.785,-8498.089,-5665.894,-11055.253
0.429412,-185,2092,-276,8,-839,-83,6385.320,-8550.778,-5574.592,-11111.761
0.449463,-164,2066,-338,5,-842,-86,6297.355,-8604.833,-5483.430,-11165.464
0.469391,-158,2096,-432,-25,-839,-80,6209.302,-8658.959,-5391.371,-11217.644
0.489380,-72,2093,-373,-20,-840,-77,6122.233,-8712.129,-5298.539,-11268.451,517,193,198
0.509338,-80,2067,-248,-20,-838,-73,6035.868,-8766.384,-5203.156,-11317.306
0.529358,-77,2136,-250,-27,-849,-54,5948.661,-8823.675,-5104.092,-11363.972
0.549347,-94,2119,-296,-33,-871,-34,5859.975,-8885.280,-4999.766,-11408.342
0.569366,-122,2079,-316,-38,-906,-4,5770.063,-8946.876,-4888.338,-11454.229
0.589325,-147,2049,-415,-27,-945,8,5676.402,-9009.439,-4769.974,-11501.793,524,188,210
0.609283,-76,2068,-458,-18,-991,11,5578.737,-9068.729,-4648.123,-11552.759
0.629272,-90,2127,-365,11,-1023,-17,5476.330,-9123.794,-4521.167,-11608.646
0.649261,-42,2089,-318,43,-1059,-36,5373.654,-9177.020,-4391.937,-11664.153
0.669250,16,2194,-424,55,-1046,-22,5271.883,-9231.518,-4260.608,-11716.184
0.689239,-35,2179,-326,12,-1061,-14,5169.227,-9286.481,-4127.176,-11766.146,532,197,215
0.709228,-81,2050,-290,39,-1067,1,5064.166,-9342.750,-3995.898,-11812.513
0.729217,-115,2016,-339,37,-1033,-8,4952.981,-9401.009,-3867.752,-11856.008
0.749206,-88,2088,-394,-27,-1027,-43,4833.307,-9462.200,-3746.347,-11895.639
0.769195,-107,2133,-339,-78,-1053,-99,4703.726,-9521.406,-3624.713,-11937.951
0.789184,-39,2035,-272,-73,-1118,-142,4568.669,-9581.535,-3504.955,-11977.987,535,192,220,33107
0.809173,-107,1992,-380,-57,-1093,-157,4432.823,-9645.336,-3389.366,-12011.045
0.829162,-131,2045,-376,-154,-1041,-149,4299.483,-9709.994,-3279.212,-12037.968
0.849151,-151,2043,-376,-162,-1030,-152,4162.066,-9773.130,-3169.527,-12064.521
0.869140,-132,1986,-303,-151,-1045,-168,4025.940,-9833.856,-3060.971,-12089.374
0.889129,-178,2058,-289,-138,-1037,-151,3894.719,-9894.250,-2951.591,-12110.265,550,193,238
0.909118,-98,2204,-364,-177,-1009,-121,3771.856,-9952.571,-2842.188,-12127.523
0.929077,-110,2166,-252,-207,-971,-81,3656.699,-10009.661,-2730.806,-12141.391
0.949066,-105,2116,-316,-129,-970,-46,3545.770,-10065.534,-2617.690,-12153.011
0.969085,-129,2000,-221,-156,-958,-31,3435.048,-10114.915,-2502.745,-12168.016
0.989044,-97,2107,-280,-79,-946,-39,3323.220,-10162.665,-2390.931,-12181.762,540,199,243
1.009033,-83,2086,-280,-111,-929,-47,3208.641,-10211.460,-2278.652,-12193.190
1.029022,-76,2116,-239,-111,-959,-50,3094.689,-10259.836,-2166.103,-12202.545
1.049011,-149,2031,-234,-128,-937,-50,2981.782,-10308.500,-2056.666,-12208.577
1.069000,-87,2069,-260,-169,-937,-58,2865.641,-10360.278,-1952.814,-12209.615
1.088989,-42,2096,-159,-202,-912,-91,2746.315,-10415.124,-1853.141,-12205.910,536,200,263
1.108978,-17,2130,-164,-218,-893,-105,2627.431,-10471.949,-1755.017,-12197.960
1.128967,-30,2110,-153,-242,-875,-99,2512.058,-10533.352,-1660.577,-12182.610
1.148956,-67,2055,-204,-303,-867,-83,2400.902,-10596.143,-1569.647,-12162.609
1.168945,-100,2007,-253,-329,-827,-75,2292.258,-10657.349,-1482.848,-12140.966
1.188934,-106,1944,-211,-329,-805,-88,2182.132,-10716.139,-1400.569,-12119.261,531,198,282
1.208923,-92,1904,-194,-296,-803,-120,2069.675,-10767.176,-1323.339,-12102.420
1.228912,-71,2012,-177,-253,-757,-155,1953.174,-10815.026,-1247.915,-12087.120
1.248871,-68,2100,-184,-241,-769,-172,1840.432,-10854.163,-1174.088,-12077.124
1.268890,-36,2103,-117,-205,-750,-162,1733.179,-10891.415,-1106.227,-12065.855
1.288879,-89,2159,-73,-203,-704,-171,1630.781,-10926.231,-1046.146,-12054.005,543,203,298,33132
1.308868,-138,2109,-42,-205,-663,-184,1528.785,-10960.605,-992.113,-12040.726
1.328857,-98,2012,-113,-204,-629,-206,1423.366,-10998.040,-939.509,-12023.723
1.348907,-119,2025,-172,-197,-644,-224,1312.987,-11033.228,-885.907,-12008.103
1.368805,-105,2079,-236,-228,-683,-238,1196.929,-11066.925,-831.986,-11993.071
1.388794,-65,2057,-299,-197,-699,-264,1075.438,-11090.093,-776.798,-11986.880,527,199,316
1.408783,-123,2085,-194,-125,-721,-289,951.815,-11102.722,-719.225,-11989.235
1.428772,-199,2089,-108,-65,-739,-289,832.900,-11107.744,-661.990,-11996.728
1.448761,-202,1995,-141,-13,-685,-265,719.627,-11111.801,-608.751,-12003.119
1.468750,-184,2143,-193,32,-646,-263,609.125,-11113.369,-557.290,-12010.282
1.488769,-195,2073,-127,27,-615,-255,502.562,-11110.217,-509.256,-12020.258,526,193,326
1.508728,-170,2071,-30,27,-625,-248,403.427,-11107.428,-466.248,-12028.314
1.528717,-187,2074,-50,52,-554,-240,306.554,-11110.353,-424.296,-12030.025
1.548706,-264,2033,-141,-17,-522,-241,213.108,-11122.536,-384.943,-12022.106
1.568725,-257,2094,-180,-146,-524,-231,118.149,-11139.707,-346.195,-12008.687
1.588684,-124,2075,-256,-160,-551,-240,18.501,-11151.799,-305.364,-11999.134,513,199,332
1.608673,-190,2000,-156,-124,-580,-254,-83.403,-11159.533,-261.743,-11992.697
1.628662,-219,2008,-132,-42,-595,-259,-190.043,-11163.353,-213.971,-11988.873
1.648651,-128,2038,-54,-40,-611,-256,-297.611,-11166.601,-163.181,-11984.459
1.668609,-242,2000,-74,-21,-619,-246,-406.061,-11172.690,-105.578,-11976.243
1.688598,-256,2021,-73,-58,-710,-216,-517.276,-11179.512,-42.059,-11965.977,495,203,340
1.708618,-222,2057,-100,-107,-686,-207,-630.191,-11187.517,24.075,-11953.124
1.728607,-270,2081,-137,-100,-730,-213,-746.190,-11196.515,94.563,-11937.661
1.748565,-273,2032,-74,-127,-760,-205,-865.124,-11204.949,171.729,-11920.848
1.768554,-246,1998,-142,-134,-820,-184,-985.840,-11213.030,257.329,-11902.323
1.788543,-251,2021,-151,-112,-842,-161,-1105.878,-11215.270,349.057,-11887.319,489,192,349,33126
1.808532,-218,2047,-113,-82,-856,-125,-1223.142,-11211.470,448.153,-11876.088
1.828521,-326,2115,-221,-28,-871,-84,-1336.865,-11203.372,556.834,-11866.870
1.848510,-322,2130,-130,-39,-919,-30,-1446.708,-11188.844,670.504,-11861.816
1.868499,-313,2133,-162,-4,-924,16,-1550.662,-11173.419,787.382,-11856.037
1.888488,-248,2017,23,3,-889,49,-1655.418,-11153.157,911.303,-11852.073,473,203,347
1.908477,-300,2116,-157,33,-948,71,-1753.297,-11139.949,1039.301,-11839.880
1.928466,-288,2099,-262,12,-924,102,-1850.582,-11118.562,1168.466,-11833.133
1.948455,-311,2030,-243,-32,-909,119,-1942.037,-11097.344,1293.506,-11825.385
1.968444,-293,2039,-262,6,-881,114,-2032.258,-11075.338,1414.395,-11817.011
1.988433,-296,2061,-259,37,-851,99,-2121.075,-11043.973,1525.270,-11816.966,471,200,364
2.008423,-211,2058,-149,88,-799,82,-2207.727,-11011.876,1629.292,-11817.164
2.028412,-289,2109,-237,140,-779,58,-2292.271,-10980.089,1726.400,-11816.857
2.048401,-348,2078,-308,71,-739,45,-2376.236,-10948.700,1818.366,-11815.602
2.068359,-288,2052,-176,66,-725,30,-2454.517,-10918.229,1901.146,-11814.766
2.088348,-174,2065,-230,127,-665,13,-2530.139,-10893.115,1980.699,-11808.925,451,193,354
2.108337,-286,2079,-312,87,-630,4,-2604.216,-10868.668,2054.813,-11802.682
2.128326,-303,2068,-276,38,-594,-15,-2678.220,-10846.064,2122.338,-11794.962
2.148315,-226,2156,-263,41,-581,-40,-2755.689,-10823.263,2186.321,-11786.373
2.168304,-212,2122,-298,36,-565,-69,-2830.812,-10802.855,2245.091,-11776.240
2.188293,-224,2072,-252,43,-559,-80,-2905.377,-10785.420,2300.122,-11763.434,455,199,353
2.208282,-313,2135,-276,33,-551,-101,-2979.383,-10771.578,2350.980,-11747.540
2.228271,-278,2107,-362,-8,-501,-118,-3055.766,-10758.177,2395.136,-11731.269
2.248260,-235,2194,-314,0,-475,-156,-3135.144,-10745.352,2432.922,-11714.291
2.268249,-321,2201,-280,21,-466,-201,-3214.505,-10732.662,2460.705,-11698.601
2.288238,-298,2204,-340,8,-417,-234,-3293.496,-10722.345,2480.444,-11681.911,446,200,357,33107
2.308227,-265,2165,-267,-4,-397,-262,-3372.914,-10713.778,2495.753,-11663.836
2.328216,-267,2164,-255,7,-370,-278,-3450.008,-10710.154,2507.522,-11642.071
2.348205,-413,2092,-358,1,-353,-296,-3526.645,-10706.946,2517.983,-11619.779
2.368194,-299,2125,-298,-29,-353,-286,-3602.224,-10700.733,2524.533,-11600.881
2.388153,-364,2169,-347,3,-312,-289,-3671.643,-10697.116,2526.971,-11581.908,431,202,346
2.408172,-355,2116,-241,-1,-264,-290,-3736.207,-10694.960,2525.646,-11563.526
2.428161,-313,2105,-239,-25,-241,-279,-3792.101,-10701.511,2525.667,-11539.241
2.448150,-339,2071,-258,-102,-212,-244,-3840.098,-10714.574,2527.267,-11510.861
2.468139,-349,2076,-279,-129,-193,-224,-3889.125,-10731.547,2537.268,-11476.337
2.488128,-338,2059,-207,-201,-249,-215,-3938.218,-10751.786,2555.021,-11436.645,431,194,358
2.508087,-281,1962,-144,-236,-282,-184,-3986.165,-10775.549,2580.955,-11391.757
2.528076,-303,2054,-110,-256,-316,-162,-4037.020,-10801.728,2617.354,-11340.637
2.548065,-353,2061,-160,-294,-352,-148,-4089.198,-10830.872,2664.476,-11283.026
2.568115,-371,2083,-204,-345,-396,-131,-4145.219,-10859.871,2720.366,-11221.203
2.588043,-326,2100,-110,-412,-481,-103,-4203.955,-10890.094,2785.761,-11153.814,416,197,349
2.608032,-327,2165,-164,-430,-516,-91,-4263.847,-10921.096,2862.643,-11081.064
2.628021,-345,2014,-123,-461,-563,-62,-4322.064,-10948.846,2943.844,-11009.621
2.648010,-368,1977,-138,-477,-593,-37,-4379.272,-10978.575,3035.475,-10932.254
2.667999,-440,1931,-190,-482,-633,1,-4438.315,-11000.999,3130.115,-10858.968
2.687988,-321,2007,-137,-418,-624,11,-4498.866,-11008.910,3219.778,-10799.656,416,189,351
2.707977,-339,2076,-209,-295,-636,23,-4557.919,-11010.139,3310.062,-10746.215
2.727966,-390,1947,-6,-321,-600,57,-4616.549,-11006.253,3402.813,-10696.081
2.747955,-287,1955,-97,-266,-671,79,-4670.510,-11002.510,3498.127,-10645.639
2.767944,-262,2076,-111,-265,-645,103,-4728.519,-10993.386,3602.815,-10594.419
2.787902,-17,1890,-18,-272,-689,123,-4790.194,-10979.318,3714.422,-10542.633,404,192,365,33138
2.807892,-227,2040,-33,-235,-798,145,-4853.003,-10964.853,3834.330,-10485.881
2.827881,-236,2001,-29,-304,-802,154,-4924.158,-10942.866,3959.710,-10428.925
2.847870,-260,1947,-108,-244,-832,156,-4997.094,-10915.468,4092.553,-10371.502
2.867889,-187,1944,-139,-217,-931,192,-5078.906,-10875.835,4231.976,-10317.303
2.887878,-348,1960,-112,-187,-1004,212,-5165.075,-10825.527,4370.334,-10269.643,391,188,378
2.907837,-207,2020,-118,-61,-971,207,-5254.177,-10765.388,4508.217,-10227.974
2.927826,-180,2016,-94,-42,-1008,233,-5344.434,-10700.570,4653.308,-10184.153
2.947815,-42,2111,38,-49,-1096,258,-5443.835,-10623.260,4810.161,-10139.467
2.967804,57,2130,-36,-18,-1208,287,-5561.641,-10530.825,4994.327,-10082.758
2.987793,60,2112,-246,-6,-1451,330,-5702.786,-10414.141,5218.098,-10011.532,399,185,386
3.007782,98,2099,-166,-49,-1750,414,-5864.741,-10268.023,5474.986,-9931.388
3.027771,9,2020,-258,7,-1980,501,-6032.913,-10102.159,5748.690,-9845.727
3.047760,-56,2062,-368,78,-2136,556,-6213.674,-9914.844,6032.487,-9753.494
3.067749,-236,2118,-325,120,-2236,556,-6405.007,-9709.549,6313.565,-9657.891
3.087738,-135,2169,-397,120,-2247,552,-6600.857,-9499.573,6585.295,-9552.807,394,180,377
3.107696,-138,2123,-336,182,-2281,470,-6807.610,-9280.213,6840.717,-9443.204
3.127716,-13,2178,-508,234,-2339,383,-7027.626,-9048.358,7092.537,-9320.463
3.147705,44,2039,-250,259,-2423,354,-7250.802,-8803.155,7335.899,-9195.126
3.167694,20,2064,-231,368,-2417,349,-7468.937,-8554.683,7578.127,-9057.582
3.187652,118,2159,-513,320,-2456,324,-7691.630,-8297.581,7822.921,-8900.917,387,182,374
3.207672,194,2180,-427,295,-2564,290,-7932.927,-8008.589,8072.060,-8729.744
3.227661,152,2166,-444,387,-2787,307,-8168.599,-7703.422,8320.917,-8551.552
3.247619,144,2248,-415,383,-2766,358,-8393.697,-7388.152,8573.963,-8359.645
3.267608,87,2220,-336,349,-2812,387,-8606.220,-7068.226,8829.150,-8151.975
3.287597,-59,1999,-271,222,-2898,384,-8804.104,-6750.219,9091.274,-7918.740,397,187,356,33138
3.307586,105,2133,-870,92,-2865,353,-8985.977,-6453.317,9352.638,-7653.136
3.327575,337,2092,-298,-111,-3046,214,-9204.725,-6107.777,9608.146,-7354.389
3.347564,130,2129,-365,239,-3238,187,-9399.238,-5762.018,9850.145,-7061.412
3.367553,24,2151,-424,65,-3041,257,-9563.700,-5431.252,10078.897,-6774.098
3.387542,52,2105,-324,38,-2952,246,-9716.982,-5107.481,10289.275,-6485.379,394,199,323
3.407531,-10,2119,-371,14,-2750,213,-9841.895,-4821.987,10467.609,-6224.960
3.427520,171,2110,-225,28,-2455,165,-9955.690,-4562.250,10617.255,-5981.592
3.447509,180,2089,-233,28,-2204,103,-10046.854,-4334.011,10750.246,-5757.143
3.467468,63,1953,-115,-21,-1955,84,-10124.649,-4132.215,10861.668,-5556.606
3.487457,147,1994,-91,7,-1715,69,-10189.069,-3959.268,10955.484,-5377.720,397,202,297
3.507476,369,2029,-66,-16,-1457,31,-10240.561,-3812.860,11035.773,-5219.209
3.527435,286,2073,-201,-53,-1312,8,-10276.386,-3689.861,11106.881,-5084.627
3.547454,294,2036,-104,-73,-1075,27,-10307.159,-3579.872,11167.918,-4965.887
3.567444,322,2024,-12,-62,-937,13,-10334.604,-3482.862,11222.155,-4854.307
3.587433,193,2064,-32,-75,-916,-18,-10356.744,-3399.088,11275.049,-4742.651,402,199,281
3.607422,337,2021,-48,-123,-837,-61,-10374.168,-3328.373,11328.435,-4626.073
3.627380,385,2004,72,-157,-821,-125,-10390.608,-3262.518,11380.294,-4507.281
3.647369,335,2034,80,-155,-819,-144,-10404.778,-3193.748,11434.628,-4384.665
3.667358,247,1980,41,-157,-870,-126,-10417.509,-3120.654,11490.128,-4260.215
3.687347,280,1987,69,-180,-859,-116,-10428.126,-3050.902,11543.457,-4138.866,402,204,262
3.707336,213,2021,-12,-164,-817,-122,-10439.066,-2984.165,11591.561,-4023.902
3.727325,337,2024,13,-166,-769,-103,-10450.484,-2918.968,11634.257,-3917.462
3.747314,345,2036,155,-139,-718,-90,-10460.619,-2854.183,11674.141,-3818.238
3.767303,197,2027,25,-104,-703,-72,-10467.000,-2791.255,11713.026,-3727.096
3.787353,317,2056,-29,-121,-639,-33,-10475.497,-2730.163,11746.313,-3642.766,414,204,262,33136
3.807281,253,2010,166,-102,-601,-45,-10485.337,-2672.713,11774.609,-3564.874
3.827270,176,1997,233,-79,-586,-40,-10493.711,-2622.382,11800.383,-3491.638
3.847259,169,2040,53,-23,-521,-57,-10504.074,-2578.313,11822.335,-3418.267
3.867248,261,2102,229,-67,-464,-94,-10515.258,-2541.668,11841.338,-3344.758
3.887237,236,2096,179,-53,-451,-138,-10521.890,-2513.513,11861.836,-3271.750,403,200,268
3.907196,323,2106,56,-69,-430,-149,-10529.219,-2490.614,11879.247,-3201.765
3.927185,303,2032,134,-72,-378,-163,-10538.035,-2468.869,11893.020,-3137.836
3.947204,263,2033,112,-60,-365,-141,-10548.616,-2443.746,11904.599,-3077.458
3.967163,279,2079,113,-1,-379,-117,-10560.008,-2415.932,11914.036,-3023.355
3.987152,341,2131,162,8,-326,-83,-10574.278,-2380.682,11921.278,-2972.468,398,200,266
4.007141,383,2141,63,43,-363,-46,-10589.458,-2335.491,11928.648,-2924.322
4.027130,296,2174,76,48,-390,11,-10604.887,-2281.017,11935.784,-2881.981
4.047119,314,2169,216,66,-400,70,-10620.050,-2218.641,11943.764,-2841.498
4.067108,239,2138,48,65,-421,102,-10632.345,-2152.876,11953.905,-2803.203
4.087097,331,2115,-23,37,-423,128,-10645.650,-2086.767,11961.510,-2770.061,392,211,271
4.107086,420,2202,61,65,-390,145,-10662.276,-2020.039,11964.622,-2742.001
4.127075,251,2192,43,107,-395,152,-10681.457,-1952.143,11964.438,-2717.215
4.147064,354,2220,148,102,-369,167,-10701.627,-1889.768,11962.105,-2692.104
4.167053,338,2128,159,123,-367,126,-10719.105,-1827.930,11963.006,-2661.085
4.187042,269,2123,104,67,-389,119,-10728.471,-1768.847,11969.914,-2632.052,400,203,256
4.207031,287,2101,-79,40,-360,135,-10735.856,-1709.039,11978.493,-2602.250
4.227020,276,2032,157,10,-345,134,-10745.002,-1651.867,11984.470,-2573.745
4.247009,259,2048,118,44,-352,123,-10754.954,-1595.806,11988.373,-2549.258
4.266967,288,2039,41,90,-299,145,-10769.629,-1538.384,11987.089,-2528.554
4.286987,318,2033,196,100,-301,150,-10783.321,-1482.071,11985.054,-2513.437,404,214,257,33107
4.306976,232,2052,74,105,-286,159,-10796.163,-1428.274,11982.514,-2501.539
4.326934,212,2085,134,102,-264,165,-10809.924,-1380.011,11977.226,-2494.515
4.346923,325,2043,95,98,-186,154,-10821.281,-1338.314,11972.461,-2490.863
4.366912,257,2081,197,78,-163,143,-10828.970,-1305.319,11968.363,-2494.649
4.386902,365,2098,165,55,-95,141,-10828.163,-1280.945,11969.164,-2506.910,404,199,250
4.406891,369,2144,154,5,-14,152,-10820.501,-1265.566,11973.222,-2528.339
4.426880,305,2126,236,-52,43,134,-10809.446,-1263.568,11977.948,-2554.109
4.446869,346,2092,106,-61,111,90,-10793.780,-1276.285,11984.947,-2581.061
4.466858,330,2108,158,-98,160,39,-10778.065,-1297.483,11991.038,-2607.736
4.486847,296,2039,141,-92,221,14,-10761.677,-1327.851,11995.123,-2641.134,427,205,242
4.506836,324,2022,153,-105,295,15,-10744.275,-1364.933,11997.631,-2681.382
4.526825,315,1972,46,-81,355,12,-10730.937,-1405.510,11994.436,-2727.724
4.546814,278,2052,119,-28,373,9,-10726.806,-1451.706,11981.501,-2776.193
4.566803,357,2101,207,38,402,-28,-10729.411,-1500.154,11963.711,-2816.793
4.586792,289,2028,156,49,381,-84,-10730.398,-1551.983,11948.415,-2849.690,421,204,241
4.606781,413,2079,243,13,332,-117,-10730.426,-1601.431,11935.720,-2875.305
4.626770,418,2136,175,30,313,-114,-10728.079,-1647.840,11925.009,-2902.162
4.646759,435,2110,-30,37,287,-100,-10726.169,-1686.911,11915.524,-2925.635
4.666748,428,2097,37,-38,233,-83,-10725.682,-1723.412,11904.708,-2950.074
4.686706,316,2023,96,-14,246,-70,-10721.491,-1761.207,11897.076,-2973.683,412,198,254
4.706695,307,2028,43,-12,259,-78,-10717.871,-1802.417,11889.244,-2993.299
4.726715,236,2058,61,-20,226,-120,-10719.712,-1848.996,11875.240,-3013.819
4.746673,277,2070,99,30,279,-138,-10723.468,-1902.765,11857.459,-3036.911
4.766662,208,2165,93,53,355,-165,-10727.814,-1964.791,11836.747,-3062.754
4.786651,228,2183,-2,33,396,-192,-10730.047,-2039.438,11813.897,-3094.197,412,215,245,33138
4.806640,282,2228,97,0,457,-220,-10731.919,-2123.323,11787.165,-3132.984
4.826629,270,2091,57,33,534,-226,-10732.534,-2211.955,11757.677,-3180.002
4.846618,266,2103,185,77,554,-212,-10736.067,-2297.868,11724.206,-3230.338
4.866607,283,2091,184,86,575,-185,-10735.079,-2378.375,11693.887,-3284.789
4.886596,287,2061,-36,86,554,-131,-10729.219,-2451.768,11667.620,-3342.869,411,204,248
4.906585,337,2086,-73,46,536,-83,-10729.032,-2513.049,11637.670,-3401.843
4.926574,321,2075,122,75,518,-38,-10731.326,-2559.669,11607.696,-3461.726
4.946563,257,2053,83,145,448,22,-10732.677,-2595.304,11581.264,-3519.060
4.966552,349,2045,-49,145,403,50,-10735.797,-2622.885,11555.902,-3572.071
4.986541,285,2092,-15,93,322,60,-10737.944,-2644.489,11534.116,-3619.785,410,203,259
5.006591,301,2091,-41,79,268,66,-10740.445,-2663.538,11513.241,-3664.576
5.026489,366,2140,-5,100,269,66,-10743.894,-2678.421,11493.797,-3704.436
5.046478,292,2062,11,69,209,61,-10745.380,-2690.742,11476.865,-3743.489
5.066467,368,2034,23,84,216,84,-10747.348,-2698.497,11460.975,-3780.756
5.086456,307,2086,68,79,192,91,-10747.756,-2699.388,11449.461,-3813.702,409,194,248
5.106445,236,2112,71,67,165,108,-10746.488,-2698.815,11440.955,-3843.095
5.126434,267,2121,-44,56,119,99,-10744.615,-2698.677,11435.120,-3865.728
5.146423,310,2099,-29,9,78,69,-10743.089,-2698.653,11431.213,-3881.509
5.166412,351,2072,-30,-6,52,49,-10740.132,-2697.209,11430.413,-3893.036
5.186401,367,1962,-52,14,34,53,-10739.473,-2688.473,11428.814,-3905.569,409,189,253
5.206390,296,1948,-5,53,29,93,-10741.475,-2672.520,11426.035,-3919.122
5.226379,319,1996,-24,91,1,112,-10747.884,-2652.898,11420.548,-3930.857
5.246368,353,2037,-89,61,-51,104,-10756.215,-2632.958,11413.703,-3941.342
5.266357,373,2108,14,63,-33,97,-10760.913,-2616.488,11409.495,-3951.656
5.286346,312,2077,-26,73,0,81,-10763.661,-2605.364,11405.108,-3964.168,400,193,245,33085
5.306335,385,2058,76,55,36,77,-10764.442,-2599.022,11401.828,-3975.629
5.326324,273,2088,30,20,37,53,-10754.345,-2602.956,11405.596,-3989.548
5.346283,353,2132,18,-69,65,49,-10738.439,-2613.116,11412.119,-4007.058
5.366302,340,2079,95,-104,151,56,-10720.839,-2628.209,11418.101,-4027.223
5.386291,237,2104,-123,-81,145,33,-10700.763,-2648.415,11425.813,-4045.465,412,205,254
5.406250,406,2153,64,-164,171,12,-10682.039,-2675.010,11431.856,-4060.354
5.426239,476,2111,99,-114,169,-43,-10663.396,-2699.882,11440.453,-4068.669
5.446228,336,2054,20,-117,129,-40,-10641.890,-2722.235,11452.305,-4076.732
5.466217,400,2030,120,-164,105,-18,-10620.267,-2740.683,11465.487,-4083.703
5.486206,399,2086,62,-144,109,-4,-10595.312,-2759.548,11480.648,-4093.213,414,199,248
5.506195,370,2089,-3,-172,138,6,-10573.394,-2777.045,11491.736,-4106.919
5.526184,425,2068,79,-112,111,22,-10559.247,-2793.018,11493.840,-4126.553
5.546173,374,2099,36,-78,138,18,-10547.468,-2810.363,11493.478,-4145.862
5.566162,419,2119,103,-47,156,6,-10538.606,-2834.382,11488.576,-4165.587
5.586151,365,2197,144,-32,184,-42,-10532.757,-2864.671,11480.948,-4180.663,414,206,255
5.606140,287,2149,58,0,209,-95,-10524.903,-2902.553,11472.715,-4196.885
5.626129,373,2053,148,-53,243,-98,-10514.182,-2949.018,11462.604,-4218.932
5.646118,381,2037,126,-51,307,-105,-10500.753,-2999.731,11451.553,-4246.546
5.666107,313,2050,12,-50,336,-98,-10484.529,-3056.432,11438.844,-4280.320
5.686096,482,2078,105,-66,391,-93,-10468.354,-3118.561,11422.110,-4319.603,416,192,257
5.706085,334,2085,11,-43,442,-113,-10451.607,-3182.446,11404.552,-4359.767
5.726043,334,2124,18,-74,430,-108,-10432.028,-3248.227,11389.851,-4396.421
5.746032,518,2129,142,-112,411,-121,-10412.280,-3314.504,11375.832,-4429.939
5.766052,252,2144,39,-110,407,-142,-10384.677,-3379.734,11370.308,-4459.527
5.786010,353,2120,154,-153,390,-116,-10355.253,-3445.642,11365.856,-4488.769,410,195,259,33142
5.805999,492,2070,225,-172,402,-121,-10323.065,-3512.963,11362.586,-4518.902
5.825988,270,2093,6,-169,387,-123,-10286.342,-3575.224,11366.943,-4542.792
5.845977,516,2038,27,-232,353,-98,-10253.234,-3633.721,11369.521,-4564.722
5.865966,419,2098,108,-200,332,-111,-10225.477,-3685.443,11369.620,-4585.226
5.885955,301,2149,-66,-156,286,-96,-10198.382,-3730.504,11372.449,-4602.084,405,193,266
5.905944,401,2118,220,-181,248,-64,-10175.742,-3770.331,11373.931,-4616.058
5.925933,257,2127,97,-143,200,-85,-10153.076,-3811.581,11374.867,-4629.766
5.945923,276,2146,118,-126,228,-89,-10134.138,-3856.691,11369.989,-4645.853
5.965912,377,2094,141,-106,250,-102,-10118.265,-3902.188,11359.989,-4666.874
5.985901,273,2134,35,-55,290,-101,-10103.613,-3944.033,11348.659,-4690.945,409,199,260
6.005890,310,2090,165,-61,272,-74,-10092.128,-3985.394,11332.016,-4720.850
6.025879,377,2064,105,-11,314,-62,-10080.105,-4027.771,11313.488,-4754.888
6.045868,291,2077,71,7,341,-63,-10069.630,-4069.422,11293.228,-4789.652
6.065857,422,2100,30,5,322,-58,-10060.564,-4112.732,11269.903,-4826.510
6.085846,314,2025,47,22,364,-73,-10051.204,-4159.097,11244.337,-4865.750,397,214,271
6.105835,249,2134,87,24,368,-77,-10042.408,-4211.742,11214.502,-4907.304
6.125793,541,2103,51,29,433,-100,-10031.919,-4273.823,11181.348,-4950.548
6.145813,276,2118,34,26,493,-150,-10016.318,-4340.512,11151.986,-4990.187
6.165802,236,2095,-40,-27,452,-157,-9996.892,-4414.089,11123.912,-5027.124
6.185760,465,2150,121,-68,494,-176,-9976.584,-4495.106,11092.833,-5064.214,391,203,275
6.205749,252,2141,105,-61,543,-225,-9951.987,-4580.535,11063.678,-5099.715
6.225799,359,2172,68,-107,513,-221,-9924.217,-4668.239,11037.986,-5129.888
6.245727,321,2186,48,-147,506,-238,-9895.811,-4754.333,11016.269,-5152.329
6.265747,242,2181,96,-160,467,-258,-9867.962,-4841.773,10994.747,-5170.253
6.285705,356,2120,98,-165,452,-277,-9842.429,-4933.237,10969.000,-5187.122,387,197,285,33115
6.305694,299,2093,145,-159,466,-306,-9814.858,-5022.440,10945.376,-5203.637
6.325683,192,2149,134,-173,448,-272,-9786.107,-5108.500,10922.832,-5221.350
6.345672,283,2101,163,-158,450,-253,-9760.642,-5193.234,10897.735,-5237.841
6.365661,79,2197,154,-131,431,-277,-9737.617,-5278.000,10870.897,-5251.720
6.385650,247,2033,124,-133,430,-294,-9718.130,-5363.901,10839.697,-5265.253,385,197,290
6.405639,202,2110,6,-92,439,-303,-9700.826,-5451.233,10803.242,-5282.369
6.425628,121,2010,10,-59,489,-322,-9686.566,-5540.025,10760.334,-5303.696
6.445617,198,1990,-2,-25,501,-328,-9674.640,-5638.103,10707.015,-5329.952
6.465606,208,2016,26,4,576,-383,-9663.270,-5745.436,10644.198,-5361.683
6.485595,149,1993,-11,17,632,-415,-9650.374,-5861.961,10574.509,-5396.562,374,191,303
6.505554,185,2111,-20,51,683,-448,-9637.538,-5987.830,10498.086,-5430.411
6.525573,151,2085,122,28,762,-511,-9621.222,-6125.915,10416.232,-5462.856
6.545532,127,2168,58,-11,809,-563,-9594.058,-6276.829,10335.029,-5493.458
6.565551,158,2220,-8,-54,833,-585,-9562.215,-6432.255,10257.662,-5514.158
6.585510,104,2198,6,-143,823,-627,-9523.773,-6598.430,10178.021,-5531.887,368,199,311
6.605499,315,2157,115,-194,879,-663,-9479.110,-6771.646,10096.300,-5549.004
6.625488,54,2238,82,-182,883,-672,-9431.625,-6940.488,10019.621,-5560.278
6.645477,23,2216,64,-240,844,-652,-9380.770,-7112.773,9942.515,-5566.995
6.665466,93,2130,86,-264,878,-705,-9335.119,-7290.158,9856.882,-5566.548
6.685455,-14,2137,57,-206,862,-788,-9295.760,-7468.418,9758.616,-5569.238,359,183,319
6.705444,-142,2257,-51,-140,873,-802,-9267.856,-7642.837,9647.300,-5573.051
6.725433,-1044,1837,1729,-45,849,-855,-9295.423,-7776.044,9496.908,-5601.109
6.745422,3000,3937,-265,833,716,-792,-9228.418,-8002.648,9349.579,-5640.454
6.765411,4198,2771,2297,-230,1847,-784,-9049.201,-8167.031,9214.874,-5910.421
6.785400,2302,2089,-671,174,2191,688,-8658.941,-8221.317,9304.968,-6267.830,331,180,335,33122
6.805389,-1159,2138,-114,-537,2732,2196,-8282.904,-8308.298,9188.542,-6809.685
6.825378,-1157,3809,-1748,904,3549,1156,-8089.868,-8631.411,8844.373,-7089.800
6.845337,-635,4624,2080,-124,2879,-1789,-8045.955,-9091.177,8357.027,-7156.021
6.865356,632,5067,-632,-19,2899,-2847,-7835.202,-9794.901,7876.908,-7004.231
6.885345,1813,4389,-322,-2064,2985,-3990,-7771.343,-10395.609,7445.124,-6674.061,325,171,347
6.905304,3577,4936,-556,-1402,1812,-3843,-7724.743,-10895.944,7042.888,-6359.237
6.925293,2744,4139,-90,-1447,1433,-3535,-7593.206,-11294.141,6754.895,-6131.266
6.945312,1421,4277,-978,-1418,1848,-1905,-7333.907,-11636.504,6574.703,-6001.190
6.965271,1790,4036,-626,-1345,2161,-1341,-7094.658,-11928.691,6324.616,-5983.878
6.985260,1990,4100,-599,-332,2106,-1341,-6855.993,-12173.989,6044.655,-6056.973,341,172,374
7.005249,1633,3773,-595,-82,2537,-1006,-6569.628,-12382.288,5809.541,-6180.905
7.025238,2159,4498,-402,-113,2367,-556,-6294.946,-12564.928,5640.199,-6254.583
7.045227,1669,3114,-563,-488,2060,-411,-6010.550,-12725.171,5505.382,-6330.049
7.065216,941,2374,-125,-226,1869,-152,-5788.316,-12823.201,5409.645,-6421.221
7.085205,972,3300,-706,-73,1436,-29,-5637.285,-12905.437,5319.784,-6465.759,291,132,429
7.105194,1253,3190,91,-235,947,-267,-5520.624,-12993.137,5216.213,-6475.158
7.125183,326,3059,453,-206,949,-570,-5407.387,-13117.707,5074.160,-6432.283
7.145172,452,2481,25,-653,915,-960,-5318.197,-13288.522,4909.095,-6282.371
7.165130,718,2691,383,-1024,799,-1181,-5216.180,-13469.275,4727.921,-6119.827
7.185150,241,2609,344,-1201,976,-1327,-5073.287,-13680.187,4524.404,-5922.791,289,99,502
7.205139,-1845,3040,-2643,-1139,1249,-1448,-4921.396,-13952.356,4283.572,-5585.523
7.225097,697,2473,890,-3563,946,-2327,-4994.698,-14105.009,3944.258,-5383.304
7.245117,98,1011,109,-355,-101,-2422,-5003.197,-14220.088,3621.385,-5298.879
7.265075,-792,946,601,-444,997,-1695,-4807.420,-14381.689,3328.357,-5235.761
7.285095,427,944,623,-262,1772,-1480,-4651.761,-14526.123,3055.535,-5143.151,331,71,538,33128
7.305053,-1616,668,189,-799,1433,-1175,-4302.710,-14713.585,2816.959,-5049.484
7.325042,-974,1344,544,-732,2591,-981,-3975.249,-14889.459,2528.252,-4954.268
7.345031,-643,1600,854,-710,2474,-1269,-3609.839,-15062.437,2199.068,-4867.402
7.365051,-877,1197,739,-639,2621,-1373,-3251.571,-15213.733,1881.228,-4781.845
7.385009,-1022,1200,48,-594,2640,-1256,-2853.069,-15356.151,1563.684,-4694.566,340,24,565
7.404998,-684,1677,-175,-611,2827,-1195,-2430.635,-15473.382,1242.793,-4642.991
7.424987,-889,1993,522,-309,2950,-1094,-1967.799,-15555.004,931.495,-4662.335
7.445037,-943,2048,621,123,3171,-902,-1487.067,-15612.464,623.140,-4699.650
7.464965,-573,1783,521,112,3220,-856,-1006.977,-15653.401,317.307,-4721.418
7.484954,-266,1494,-191,11,3171,-859,-530.517,-15676.215,34.111,-4733.826,331,-19,591
7.504944,-424,1705,-1231,110,2941,-688,-51.916,-15672.392,-197.028,-4771.797
7.524933,-172,1740,-1385,174,3055,-341,411.202,-15618.916,-387.909,-4915.824
7.544922,-141,1821,-1566,1283,2712,-245,884.018,-15500.278,-556.170,-5204.422
7.564911,-165,2027,-946,1938,2896,-119,1363.768,-15320.859,-702.427,-5599.414
7.584900,58,2048,-847,2589,2821,-38,1828.295,-15113.504,-838.168,-5997.687,405,-42,637
7.604889,593,1875,-748,2389,2636,-71,2237.566,-14913.310,-967.113,-6331.398
7.624878,597,2123,-1034,1976,2371,-69,2634.043,-14736.154,-1069.414,-6572.623
7.644836,348,2152,-849,1460,2304,187,3023.701,-14567.560,-1149.703,-6764.396
7.664825,367,1908,-916,1267,2197,260,3384.762,-14411.610,-1234.576,-6910.871
7.684814,422,1679,-743,1012,2078,181,3720.158,-14263.306,-1331.458,-7027.174,513,-33,627
7.704803,321,1394,-725,820,2011,115,4040.551,-14126.098,-1441.164,-7105.335
7.724792,265,1307,-729,580,1970,75,4346.048,-13996.193,-1557.245,-7157.435
7.744781,308,1356,-685,486,1929,55,4642.412,-13864.608,-1678.932,-7199.811
7.764770,380,1391,-705,428,1929,5,4921.473,-13729.894,-1800.339,-7243.157
7.784759,426,1371,-791,506,1797,-43,5191.651,-13584.440,-1914.498,-7299.307,594,21,576,33107
7.804748,437,1275,-561,608,1744,-47,5452.498,-13427.331,-2018.683,-7371.389
7.824737,245,1264,-481,699,1715,-58,5700.197,-13269.791,-2121.326,-7440.149
7.844726,140,1348,-349,627,1626,-98,5924.310,-13118.157,-2237.530,-7499.694
7.864715,314,1408,-335,525,1566,-224,6123.364,-12972.593,-2371.982,-7551.515
7.884674,355,1671,-365,441,1488,-334,6305.754,-12834.434,-2516.125,-7590.738,645,50,506
7.904663,292,1920,-362,313,1446,-362,6483.599,-12699.770,-2669.827,-7614.869
7.924652,337,1846,-140,225,1493,-376,6657.100,-12565.130,-2833.563,-7629.342
7.944671,175,1711,-12,176,1503,-406,6827.379,-12429.338,-3005.786,-7635.387
7.964630,131,1705,-77,83,1552,-447,6997.142,-12292.860,-3208.505,-7620.139
7.984619,350,1553,-187,-76,1669,-546,7165.270,-12150.608,-3441.482,-7590.339,686,60,443
8.004608,592,1838,-410,-171,1746,-646,7339.895,-11997.171,-3683.947,-7553.661
8.024597,667,2450,-311,-147,1838,-638,7535.852,-11819.318,-3919.595,-7522.423
8.044586,482,2351,-25,44,1983,-592,7758.092,-11617.307,-4141.648,-7492.153
8.064575,587,2376,-258,100,2127,-470,7991.828,-11402.952,-4369.342,-7446.318
8.084564,840,2345,-246,110,2235,-476,8241.535,-11163.775,-4595.626,-7400.194,698,84,392
8.104553,844,2317,-491,190,2377,-454,8515.369,-10897.104,-4826.103,-7340.694
8.124542,958,2417,-587,251,2581,-433,8806.165,-10598.074,-5052.047,-7283.168
8.144531,1142,2580,-776,397,2715,-447,9109.569,-10263.045,-5275.692,-7231.055
8.164520,1335,2654,-951,528,2823,-507,9417.308,-9899.801,-5478.618,-7192.247
8.184509,1126,2603,-548,749,2841,-482,9726.016,-9517.579,-5662.855,-7154.565,697,93,342
8.204498,943,3000,-288,713,2814,-486,9966.257,-9173.365,-5890.525,-7089.446
8.224487,693,2934,-456,88,2581,-702,10113.520,-8865.525,-6184.309,-7022.032
8.244476,805,3220,-895,-244,2304,-1129,10206.634,-8551.577,-6497.058,-6994.200
8.264434,1064,2910,-756,-137,2264,-1407,10287.002,-8220.470,-6796.300,-6989.077
8.284423,943,2993,-724,-159,2125,-1385,10358.966,-7921.810,-7091.531,-6934.145,697,107,281,33111
8.304443,688,3104,-466,-464,2140,-1045,10430.768,-7654.569,-7388.802,-6815.253
8.324402,591,3128,-397,-697,2191,-813,10488.218,-7409.411,-7697.536,-6654.417
8.344421,585,3278,-425,-922,2205,-684,10507.583,-7196.734,-8030.992,-6460.365
8.364380,197,3338,-362,-1318,2118,-670,10522.359,-6970.548,-8381.748,-6234.832
8.384369,-7,3333,-100,-1242,2419,-666,10555.165,-6687.545,-8738.073,-5995.560,667,111,186
8.404358,348,3485,-153,-1141,2698,-774,10586.579,-6367.569,-9103.851,-5738.792
8.424347,534,3549,-206,-1223,2866,-823,10619.297,-6025.422,-9462.741,-5460.475
8.444336,658,3532,-131,-1104,2995,-744,10667.906,-5668.759,-9789.465,-5163.599
8.464325,626,3656,-346,-922,3037,-657,10714.868,-5316.741,-10088.575,-4855.917
8.484314,459,3790,-242,-878,2953,-556,10758.733,-4972.411,-10357.022,-4548.881,607,134,148
8.504303,285,3780,-129,-840,2879,-506,10798.324,-4630.792,-10605.486,-4232.147
8.524292,36,3752,-223,-751,2941,-385,10837.640,-4268.078,-10841.986,-3900.749
8.544281,-141,3385,-48,-748,3049,-445,10886.761,-3869.156,-11049.862,-3583.860
8.564331,-46,3515,-147,-502,3061,-629,10910.330,-3438.746,-11262.615,-3275.464
8.584259,-78,3961,174,-688,3186,-804,10913.107,-2969.275,-11481.247,-2950.235,555,164,146
8.604248,-176,3818,401,-689,3396,-900,10893.418,-2477.622,-11696.893,-2610.162
8.624237,-175,3611,410,-773,3447,-945,10839.549,-1988.585,-11910.173,-2265.592
8.644195,-16,2948,-9,-1049,3377,-880,10723.138,-1518.169,-12147.290,-1894.266
8.664276,115,3385,-669,-1285,3489,-756,10593.681,-1054.422,-12364.173,-1491.573
8.684204,-221,3400,239,-1365,3533,-627,10496.527,-584.892,-12521.441,-1062.907,500,183,154
8.704193,-154,2961,-1,-603,3695,-520,10431.569,-136.158,-12615.979,-660.547
8.724151,95,2933,-76,-593,3329,-542,10359.676,304.090,-12686.294,-279.330
8.744140,170,2021,-552,-412,3261,-587,10307.783,733.063,-12713.657,102.783
8.764129,618,2017,-989,-178,3241,-499,10290.236,1131.531,-12690.241,473.190
8.784118,729,2058,-539,218,3006,-431,10343.405,1496.858,-12588.540,858.774,437,183,175,33070
8.804107,693,2060,-521,801,3028,-246,10427.763,1832.567,-12439.073,1268.213
8.824096,727,2016,-301,1119,2947,-86,10542.224,2122.297,-12248.136,1666.122
8.844085,811,2043,-355,1337,2701,24,10643.534,2374.592,-12054.515,2049.535
8.864074,822,1885,-371,1198,2554,139,10717.902,2598.366,-11872.153,2421.255
8.884063,830,1878,-474,1066,2403,236,10769.306,2796.392,-11701.958,2775.221,385,185,234
8.904052,735,2055,-408,935,2252,291,10803.910,2975.583,-11541.404,3106.901
8.924041,585,1952,-382,839,2092,285,10824.364,3148.527,-11391.072,3405.705
8.944030,564,1858,-403,693,1930,181,10833.750,3320.129,-11254.254,3658.387
8.964019,506,1711,-320,562,1730,30,10828.589,3494.688,-11135.923,3867.229
8.984008,489,1631,-352,330,1588,-90,10800.776,3670.829,-11046.355,4035.062,358,204,255
9.003997,479,1615,-416,106,1405,-167,10755.311,3839.112,-10983.687,4168.761
9.023956,375,1568,-348,-92,1233,-181,10695.024,3995.046,-10944.272,4279.534
9.043945,239,1468,-176,-229,1103,-156,10620.283,4142.008,-10925.504,4372.888
9.063934,92,1289,-160,-382,1007,-134,10528.336,4287.287,-10928.051,4448.194
9.083923,33,1051,-191,-538,920,-148,10423.599,4436.382,-10945.518,4505.349,353,189,241
9.103912,91,867,-279,-677,888,-192,10312.087,4587.703,-10972.713,4544.101
9.123901,156,706,-453,-727,815,-231,10198.371,4737.857,-10999.417,4581.941
9.143890,157,545,-401,-718,829,-211,10093.789,4876.066,-11016.424,4627.444
9.163879,147,483,-312,-563,818,-161,10000.828,5001.482,-11018.112,4690.977
9.183868,88,372,-209,-415,856,-86,9917.569,5116.236,-11004.937,4774.174,348,189,241
9.203857,9,340,-203,-298,909,-23,9831.482,5232.036,-10984.413,4872.972
9.223877,-14,376,-179,-284,1002,12,9743.245,5354.930,-10953.903,4984.107
9.243835,-75,353,-246,-236,1091,1,9650.029,5489.697,-10912.270,5108.615
9.263824,-2,277,-205,-225,1243,-16,9554.897,5635.544,-10856.416,5245.783
9.283813,-36,234,-262,-158,1353,-30,9452.956,5794.973,-10785.290,5401.188,336,185,281,33089
9.303802,-33,266,-261,-126,1497,-41,9348.054,5965.352,-10696.282,5572.562
9.323791,59,305,-192,-78,1655,-67,9238.284,6149.254,-10587.568,5760.173
9.343780,151,405,-169,-16,1788,-101,9120.911,6344.418,-10462.597,5960.440
9.363739,202,452,-184,0,1920,-116,8990.784,6545.857,-10327.111,6172.825
9.383728,261,627,-200,-5,2030,-83,8847.521,6747.606,-10183.497,6397.108,341,185,307
9.403717,216,922,-217,12,2108,-34,8692.946,6949.619,-10029.033,6632.452
9.423706,304,1339,-75,19,2209,-15,8530.662,7155.620,-9856.230,6878.594
9.443695,557,1405,26,66,2303,-43,8350.660,7368.319,-9680.437,7120.317
9.463714,830,1436,-228,-42,2346,-18,8145.493,7572.925,-9514.096,7363.365
9.483703,989,1579,-297,-115,2390,134,7919.863,7754.382,-9351.810,7623.936,346,180,335
9.503692,966,1664,-186,-51,2424,325,7682.722,7909.720,-9181.997,7908.126
9.523651,859,1865,-175,82,2468,454,7444.140,8048.244,-9001.528,8198.687
9.543670,862,2131,-201,165,2445,451,7221.845,8178.965,-8806.855,8474.916
9.563629,902,2336,-339,201,2353,310,7026.554,8305.555,-8604.997,8719.790
9.583618,1041,2509,-184,214,2148,132,6869.068,8423.726,-8400.701,8928.627,348,182,353
9.603607,1235,2462,-243,285,1916,-31,6727.798,8537.308,-8208.456,9105.371
9.623596,1258,2527,-156,121,1735,-71,6575.529,8650.489,-8030.367,9267.152
9.643585,1262,2705,-227,53,1797,-5,6393.635,8776.281,-7857.889,9422.703
9.663574,1208,2867,-86,-145,1832,45,6188.746,8924.701,-7695.429,9553.268
9.683563,1034,3047,-23,-424,1842,0,5978.554,9114.222,-7547.989,9625.546,371,179,375
9.703552,815,3201,-15,-803,1662,-231,5811.680,9309.234,-7392.190,9661.961
9.723510,916,2799,-41,-490,1531,-479,5686.698,9485.623,-7184.446,9721.295
9.743499,1109,2914,-268,-248,1645,-672,5558.098,9681.725,-6962.665,9763.629
9.763519,1048,2917,-219,-525,1700,-750,5403.153,9908.012,-6754.372,9769.909
9.783508,815,3198,610,-887,1715,-726,5214.224,10156.094,-6547.364,9758.743,410,183,385,33091
9.803497,388,3894,-118,-1053,1848,-720,4994.793,10442.079,-6334.039,9712.384
9.823486,-216,3705,570,-1075,1925,-809,4831.137,10678.293,-6077.510,9702.241
9.843444,-532,3456,516,-688,1831,-999,4691.459,10920.173,-5779.771,9683.476
9.863433,-318,3350,435,-666,1980,-1263,4553.538,11172.900,-5430.217,9663.320
9.883484,-95,3090,573,-651,2175,-1437,4375.451,11446.276,-5056.894,9628.158,428,180,407
9.903412,230,3250,371,-910,2366,-1397,4160.257,11712.307,-4706.624,9581.087
9.923401,-115,3275,642,-875,2330,-1106,3926.478,11926.880,-4392.624,9564.130
9.943390,-510,3387,922,-657,2310,-771,3686.931,12096.068,-4092.729,9580.014
9.963379,-653,3391,984,-345,2229,-669,3461.034,12239.478,-3785.362,9608.480
9.983368,-657,3220,843,-284,2227,-701,3228.509,12374.915,-3468.235,9635.610,415,169,448
10.003357,-692,3002,740,-204,2308,-701,2973.122,12497.312,-3135.056,9673.913
10.023346,-635,2805,503,-202,2511,-650,2680.612,12617.819,-2783.656,9710.389
10.043335,-521,2843,272,-164,2696,-601,2364.644,12713.699,-2421.864,9764.237
10.063293,-563,2805,425,-3,2834,-523,2027.695,12771.915,-2045.586,9849.754
10.083282,-461,2696,345,306,2949,-473,1685.233,12798.694,-1660.147,9951.520,414,143,477
10.103302,-264,2555,321,416,2954,-479,1342.150,12802.193,-1272.861,10055.732
10.123260,-147,2297,144,475,2940,-462,997.086,12791.760,-894.192,10149.510
10.143280,7,2241,130,475,2890,-406,652.163,12763.533,-529.966,10238.236
10.163238,74,2277,239,522,2839,-334,301.182,12716.373,-180.710,10325.014
10.183227,85,2240,447,550,2818,-242,-56.052,12661.748,153.377,10396.582,437,147,495
10.203216,164,2177,389,485,2776,-164,-408.769,12618.449,470.437,10431.768
10.223205,335,2073,328,247,2663,-117,-750.727,12583.452,766.999,10437.446
10.243194,349,1887,177,110,2573,-47,-1096.259,12549.297,1045.889,10423.767
10.263183,366,1756,-130,99,2541,45,-1452.053,12496.703,1316.994,10412.728
10.283172,453,1698,-122,218,2568,86,-1811.340,12410.732,1582.795,10422.234,480,145,490,33068
10.303161,491,1714,-338,453,2586,81,-2170.273,12289.586,1849.944,10453.187
10.323150,627,1731,-74,692,2542,14,-2512.174,12124.881,2111.006,10519.284
10.343139,576,1784,-95,964,2472,-78,-2838.576,11938.407,2367.348,10594.717
10.363128,479,1696,-102,1050,2379,-146,-3135.470,11737.325,2615.954,10676.902
10.383117,564,1702,-221,1060,2229,-243,-3389.117,11533.293,2849.892,10761.532,536,152,448
10.403106,519,1693,-163,1093,1969,-345,-3606.787,11325.452,3060.364,10853.333
10.423095,410,1657,-256,1099,1741,-374,-3792.374,11126.079,3246.542,10941.830
10.443084,334,1570,-229,1034,1507,-376,-3952.605,10939.440,3411.341,11022.874
10.463073,257,1511,-231,945,1347,-350,-4097.271,10772.352,3561.057,11087.070
10.483062,219,1459,-188,791,1260,-290,-4234.229,10624.665,3701.253,11132.113,569,163,412
10.503051,59,1282,-252,653,1193,-232,-4367.937,10496.934,3836.207,11155.916
10.523040,25,1189,-230,497,1163,-165,-4495.396,10382.638,3968.473,11165.970
10.543029,67,1113,-287,410,1146,-152,-4622.094,10276.468,4103.579,11163.625
10.562988,97,1035,-215,345,1166,-132,-4755.055,10173.130,4240.465,11151.267
10.582977,30,935,-227,307,1214,-83,-4893.600,10074.853,4375.184,11128.486,583,180,351
10.602966,3,961,-149,262,1214,-33,-5034.128,9981.496,4509.058,11096.446
10.622955,-30,788,-103,201,1242,0,-5179.656,9892.550,4648.322,11051.567
10.642944,-163,654,-189,152,1296,28,-5331.158,9807.822,4798.640,10990.627
10.662933,-171,629,-305,51,1394,39,-5486.915,9722.509,4965.038,10915.604
10.682922,-146,826,-394,5,1499,23,-5647.367,9624.121,5145.315,10837.191,576,182,295
10.702911,-208,1040,-507,39,1582,-32,-5808.832,9511.121,5329.955,10762.112
10.722900,-67,1160,-225,102,1608,-74,-5961.157,9385.084,5499.462,10704.025
10.742889,-71,1139,-205,262,1539,-113,-6117.834,9249.922,5683.771,10636.786
10.762878,-55,950,-149,165,1575,-153,-6254.067,9126.837,5860.357,10567.835
10.782867,-73,998,-352,88,1459,-155,-6375.708,9023.580,6028.608,10488.883,578,180,255,33083
10.802826,-190,1387,-602,-53,1371,-95,-6495.400,8932.416,6188.149,10400.191
10.822815,-306,1774,-605,-21,1359,-47,-6623.666,8824.017,6337.116,10321.829
10.842834,-49,2394,-380,108,1321,-54,-6754.935,8701.292,6474.178,10255.673
10.862854,59,2146,-51,253,1376,-62,-6904.248,8567.839,6611.305,10180.843
10.882812,100,1858,-101,211,1442,33,-7054.746,8461.323,6740.990,10081.222
10.902801,-11,1951,-394,112,1369,192,-7210.508,8378.373,6863.826,9956.644,572,191,247
10.922760,130,2000,-627,-91,1396,335,-7365.202,8308.031,6984.025,9817.802
10.942749,492,2063,-596,-77,1378,373,-7534.355,8225.689,7086.291,9684.598
10.962738,581,2270,-390,84,1374,444,-7729.508,8138.168,7168.174,9543.461
10.982727,304,2520,-78,152,1470,621,-7939.724,8057.009,7253.820,9373.522
11.002716,27,2519,6,20,1549,702,-8123.680,7988.580,7353.363,9195.210,564,182,222
11.022705,-140,2632,23,-107,1441,572,-8265.499,7922.341,7472.451,9028.618
11.042694,-98,2771,62,-303,1368,332,-8359.313,7860.106,7628.956,8864.258
11.062713,-140,3051,148,-505,1369,86,-8424.782,7786.352,7811.039,8707.403
11.082672,-197,3756,211,-650,1382,-87,-8459.150,7719.151,8036.724,8526.663
11.102722,-350,3629,688,-864,1552,-192,-8494.584,7618.065,8281.125,8346.588,541,179,193
11.122650,-199,3648,647,-781,1628,-376,-8482.378,7532.711,8545.004,8168.590
11.142639,11,2740,445,-1196,1435,-471,-8436.876,7467.949,8822.066,7978.435
11.162628,300,2555,-453,-1184,1395,-477,-8379.904,7432.872,9073.103,7787.416
11.182586,274,3095,-1094,-1317,1160,-302,-8371.063,7386.814,9269.231,7607.698
11.202606,-203,3095,64,-860,1365,-108,-8478.011,7239.724,9427.043,7434.784,549,175,180
11.222595,-283,3442,467,291,1856,-51,-8666.038,7017.316,9533.660,7293.957
11.242553,-349,3124,1086,673,1854,-172,-8847.779,6765.118,9617.093,7203.952
11.262573,-179,3177,-116,656,1656,-385,-8919.809,6576.108,9762.171,7094.171
11.282531,95,2834,-464,-303,1431,-461,-8974.313,6390.644,9908.676,6991.061,549,175,180,33060
11.302520,-36,3108,-428,381,1424,-548,-9107.027,6146.260,9985.677,6928.725,538,179,179
11.322509,-285,2626,307,729,1505,-486,-9282.296,5865.838,10031.208,6873.225
11.342498,-345,3280,30,1152,1572,-488,-9424.141,5603.244,10090.638,6812.024
11.362487,-401,2626,339,589,1494,-499,-9537.620,5345.817,10173.359,6737.525
11.382476,-287,2533,-200,601,1521,-590,-9606.041,5113.863,10275.521,6664.944
11.402465,-235,2358,-169,203,1337,-616,-9656.467,4897.538,10382.021,6589.069,521,179,207
11.422454,-198,2214,-328,159,1351,-581,-9701.462,4695.232,10483.258,6509.468
11.442444,-175,1834,-94,119,1235,-505,-9745.045,4511.771,10579.325,6418.047
11.462433,-167,1521,-313,104,1220,-390,-9783.024,4353.406,10671.360,6316.471
11.482422,-223,1787,-328,-122,1199,-226,-9813.620,4231.212,10765.320,6191.367
11.502411,-355,1970,19,-172,1188,-39,-9853.751,4113.007,10863.315,6034.118,501,189,173
11.522400,-504,2351,278,-113,1284,45,-9887.314,3991.323,10970.332,5864.947
11.542358,-305,1553,907,-273,1367,22,-9895.838,3876.453,11085.699,5708.608
11.562347,-263,1906,49,-482,1195,-43,-9819.992,3817.082,11262.034,5531.696
11.582367,-379,1963,-19,-1202,1095,13,-9721.447,3766.500,11457.482,5335.588
11.602325,-408,2239,-303,-1233,1261,15,-9624.192,3700.074,11643.643,5152.221,449,188,156
11.622345,-217,1792,240,-1063,1147,-128,-9555.591,3607.170,11790.083,5010.827
11.642303,-230,1943,143,-750,1018,-257,-9476.105,3515.527,11937.164,4876.889
11.662323,-325,1983,195,-800,1021,-276,-9401.473,3415.134,12077.378,4745.684
11.682312,-423,1984,419,-814,1056,-295,-9326.148,3302.544,12218.390,4611.131
11.702270,-479,2353,476,-708,1072,-357,-9244.051,3177.521,12360.999,4482.411,428,177,152
11.722259,-425,1895,790,-784,1094,-443,-9160.740,3038.457,12498.468,4367.192
11.742248,-191,1601,459,-680,1006,-558,-9048.404,2903.281,12646.445,4266.168
11.762237,-507,1691,-1158,-925,980,-613,-8951.578,2744.310,12778.245,4182.093
11.782226,713,1758,1397,-429,1191,-828,-9016.960,2525.508,12784.731,4159.605,428,177,152,33099
11.802215,-190,1837,172,773,744,-787,-9005.927,2383.126,12847.268,4073.956,427,191,182
11.822204,-51,1656,104,-592,968,-356,-8973.713,2290.349,12904.430,4017.198
11.842193,-406,1401,-73,101,622,-356,-9009.965,2165.326,12920.672,3952.664
11.862182,-569,1462,35,194,679,-339,-9063.073,2033.165,12917.519,3911.532
11.882171,-476,1507,46,501,689,-424,-9132.525,1881.031,12898.724,3888.067
11.902160,-347,1398,49,569,555,-540,-9208.831,1726.225,12868.139,3881.238,405,198,231
11.922149,-242,1356,74,668,534,-547,-9291.219,1578.657,12833.224,3863.274
11.942138,-278,1464,86,634,596,-418,-9374.754,1446.888,12801.766,3817.163
11.962097,-324,1409,211,639,675,-261,-9461.157,1323.821,12773.110,3743.943
11.982116,-323,1361,281,559,757,-149,-9531.985,1211.676,12758.202,3651.961
12.002075,-301,1436,338,404,823,-73,-9580.384,1110.232,12762.239,3541.796,370,189,241
12.022094,-305,1542,340,207,882,-5,-9605.051,1016.098,12785.953,3415.461
12.042053,-276,1497,391,37,939,29,-9607.892,925.872,12825.782,3281.145
12.062042,-371,1510,258,-131,960,33,-9584.798,838.884,12883.586,3142.702
12.082031,-459,1566,220,-294,957,18,-9548.075,750.816,12947.359,3011.955
12.102020,-414,1513,364,-344,927,-47,-9508.767,656.560,13007.050,2899.025,349,188,254
12.122009,-248,1337,160,-287,849,-140,-9469.936,563.838,13059.576,2808.081
12.141998,42,1325,261,-265,728,-182,-9458.765,514.073,13078.645,2766.218
12.161987,-331,1422,261,-88,277,-70,-9469.016,476.050,13083.408,2714.955
12.181976,-843,1392,262,214,189,37,-9530.148,456.754,13039.852,2713.916
12.201965,-615,1653,816,442,-16,-40,-9613.344,432.959,12972.194,2748.410,342,179,228
12.221954,-645,1749,262,777,-116,-158,-9687.264,383.408,12914.793,2766.489
12.241943,-248,1702,1123,380,37,-223,-9751.519,357.044,12855.667,2819.158
12.261932,-306,1730,83,774,-90,-206,-9775.017,343.453,12838.073,2819.645
12.281921,-408,1228,-67,-138,54,44,-9816.199,329.868,12813.670,2789.036,342,179,228,33083
12.301910,-384,1850,480,443,176,86,-9913.530,283.543,12750.950,2736.826,340,191,245
12.321960,-367,1757,1078,1043,465,81,-10060.766,194.318,12658.160,2636.219
12.341888,-222,2163,269,742,759,115,-10113.069,134.379,12637.991,2534.636
12.361847,-118,2083,822,374,570,119,-10180.256,85.306,12602.405,2443.348
12.381866,-295,2026,267,356,522,200,-10197.839,77.075,12605.385,2353.260
12.401855,-302,2105,180,-26,385,330,-10207.526,94.478,12613.263,2266.829,336,189,248
12.421814,-1150,2029,-51,55,282,413,-10234.802,103.316,12608.505,2167.758
12.441803,-870,2400,2,141,617,382,-10300.467,26.624,12575.114,2049.784
12.461792,482,2747,1380,785,563,70,-10434.953,-38.580,12470.330,2009.121
12.481781,-266,2975,354,820,84,-49,-10452.830,-2.353,12459.546,1983.302
12.501770,-321,2914,916,-182,-54,327,-10466.855,48.819,12456.357,1927.995,340,188,238
12.521759,-549,2858,568,174,89,471,-10448.770,104.500,12485.184,1835.181
12.541748,-430,2736,175,-484,261,604,-10390.983,175.542,12544.644,1750.429
12.561737,-230,2805,244,-441,83,558,-10359.822,243.258,12579.322,1676.607
12.581726,-123,2849,417,-266,83,544,-10348.194,313.075,12596.789,1604.126
12.601715,-36,2927,755,-132,82,565,-10341.304,392.369,12608.832,1535.012,334,182,227
12.621704,-6,2805,384,-165,-11,592,-10305.578,492.034,12641.296,1478.520
12.641693,-26,2765,379,-400,-173,612,-10268.677,610.627,12669.913,1445.737
12.661682,-38,2768,236,-333,-327,606,-10231.825,742.788,12693.926,1434.471
12.681640,-100,2769,58,-313,-481,579,-10202.332,882.974,12707.157,1447.886
12.701629,-170,2431,9,-223,-620,529,-10190.813,1023.604,12701.669,1484.113,352,169,217
12.721649,-148,2242,-187,-70,-689,466,-10192.347,1159.481,12682.573,1536.043
12.741607,-122,2391,-228,46,-732,409,-10217.071,1286.747,12643.806,1589.132
12.761596,-104,2638,62,267,-652,402,-10275.965,1391.800,12580.253,1624.842
12.781585,-149,2797,423,493,-491,389,-10346.638,1478.357,12509.405,1646.743,352,169,217,33013
12.801574,-374,2528,604,453,-356,370,-10388.716,1542.301,12466.418,1649.165,363,194,227
12.821563,-347,2199,348,228,-195,282,-10381.024,1582.276,12468.331,1645.264
12.841552,-473,2279,107,-225,-55,143,-10338.617,1579.722,12506.923,1621.657
12.861572,-321,2471,74,-435,182,-20,-10288.092,1538.910,12556.734,1597.118
12.881530,-199,2947,457,-259,292,-198,-10268.082,1465.030,12584.644,1575.553
12.901519,-107,3024,1098,-243,408,-293,-10233.196,1372.521,12627.539,1542.266,388,198,228
12.921508,-48,2653,1172,-304,495,-332,-10143.881,1290.900,12712.568,1503.759
12.941497,264,2365,648,-940,416,-292,-9963.214,1248.425,12862.921,1468.499
12.961486,443,2249,105,-1501,243,-185,-9746.582,1241.926,13034.176,1416.850
12.981475,495,1993,-18,-1564,244,29,-9579.374,1265.214,13163.233,1341.478
13.001465,282,1891,-35,-1071,261,306,-9473.511,1311.565,13245.355,1236.285,405,200,226
13.021454,154,2016,255,-734,333,536,-9420.700,1373.009,13286.431,1127.577
13.041412,86,1952,550,-339,261,608,-9406.096,1439.792,13297.144,1036.219
13.061432,172,1841,464,-141,135,577,-9392.095,1515.359,13303.493,971.987
13.081390,302,1895,348,-164,14,543,-9377.831,1594.200,13308.692,910.475
13.101410,321,1723,257,-117,16,566,-9382.381,1681.235,13298.901,847.960,402,199,234
13.121399,323,2085,295,22,0,636,-9411.317,1771.486,13270.983,778.059
13.141357,326,2135,611,246,47,675,-9469.311,1864.793,13220.407,714.822
13.161346,319,2015,940,386,-23,680,-9531.979,1968.189,13162.760,666.936
13.181335,290,1970,735,395,-149,682,-9551.099,2079.417,13133.991,621.490
13.201324,341,1415,555,19,-167,676,-9540.759,2198.376,13123.829,584.477,394,204,276
13.221313,320,1149,103,-146,-272,675,-9504.958,2322.690,13130.479,535.570
13.241302,269,1201,-265,-265,-180,735,-9488.575,2441.042,13123.172,475.458
13.261291,341,1296,42,-48,-140,736,-9523.016,2558.218,13077.257,434.150
13.281280,266,1532,357,407,-205,698,-9592.818,2668.876,13004.764,408.030,394,204,276,33083
13.301269,158,1356,916,533,-219,634,-9666.819,2775.494,12927.390,408.964,418,199,283
13.321258,64,1070,739,559,-364,525,-9680.407,2881.136,12893.447,428.059
13.341247,95,939,208,-56,-443,401,-9624.525,2968.426,12914.757,448.850
13.361236,303,1144,-129,-404,-464,236,-9558.523,3038.901,12946.086,483.724
13.381225,336,977,186,-320,-466,130,-9537.521,3103.589,12944.342,531.848
13.401184,285,1016,211,76,-441,136,-9538.798,3168.329,12925.779,576.801,449,203,273
13.421173,209,738,501,96,-410,163,-9545.211,3231.897,12903.270,620.350
13.441162,270,1096,204,89,-409,163,-9520.975,3287.215,12905.757,649.709
13.461151,346,1027,163,-166,-303,123,-9500.987,3332.231,12907.749,672.999
13.481170,362,931,0,-35,-276,117,-9497.536,3377.431,12897.477,693.028
13.501129,339,1007,-76,59,-238,156,-9513.499,3424.171,12872.310,712.359,468,210,273
13.521118,152,1098,49,212,-231,183,-9556.378,3469.810,12826.866,736.885
13.541168,-19,1259,163,401,-232,174,-9614.493,3509.084,12770.171,778.472
13.561096,70,1083,344,539,-289,86,-9681.091,3543.453,12705.348,854.385
13.581085,279,962,298,589,-449,-37,-9735.750,3581.870,12645.879,950.029
13.601074,635,1243,217,508,-546,-68,-9767.557,3637.294,12598.299,1040.773,480,200,287
13.621063,597,1529,246,343,-553,58,-9795.429,3715.556,12548.565,1101.434
13.641052,335,1864,484,324,-518,273,-9831.592,3811.001,12488.223,1138.323
13.661041,-164,1587,944,419,-454,419,-9869.756,3905.365,12425.427,1174.839
13.681030,-329,1715,688,303,-467,354,-9854.083,3978.856,12410.633,1215.473
13.701019,82,2041,631,-130,-445,106,-9796.430,4010.429,12441.240,1263.879,483,200,280
13.720977,325,2397,458,-408,-289,-153,-9719.183,4008.852,12499.886,1286.417
13.740997,281,2514,552,-528,-99,-209,-9656.390,3987.582,12555.326,1285.517
13.760955,189,2475,710,-389,52,-175,-9605.485,3959.073,12604.176,1276.933
13.780944,343,2698,648,-469,113,-192,-9536.288,3907.789,12676.067,1241.434,483,200,280,33083
13.800933,570,2931,667,-618,359,-250,-9464.472,3836.747,12757.273,1179.222,490,200,259
13.820923,676,3345,595,-686,491,-233,-9391.357,3764.353,12839.874,1097.773
13.840912,430,2991,913,-674,599,-168,-9343.084,3687.684,12905.382,997.145
13.860901,729,3009,883,-490,629,-123,-9288.415,3617.286,12970.507,917.588
13.880890,1078,3270,928,-593,507,-175,-9217.085,3549.401,13046.025,826.905
13.900879,1123,3238,809,-733,588,-113,-9133.745,3504.139,13123.202,716.049,490,186,259
13.920868,1087,3091,762,-752,524,88,-9056.932,3494.120,13184.603,603.979
13.940857,1082,3071,839,-686,400,255,-8990.631,3510.633,13230.021,495.971
13.960846,1157,3177,925,-563,353,370,-8937.905,3542.011,13261.046,384.853
13.980835,1000,3034,1243,-471,344,466,-8897.239,3582.384,13280.485,264.241
14.000824,897,3081,1328,-412,378,537,-8838.049,3624.424,13310.393,145.987,492,198,273
14.020813,898,2904,1382,-596,325,485,-8747.114,3656.606,13362.309,36.979
14.040802,1023,2709,1196,-819,272,366,-8626.159,3675.093,13435.569,-63.157
14.060791,1121,2433,1133,-954,232,254,-8497.167,3686.447,13513.664,-156.792
14.080780,1048,2336,867,-980,243,220,-8368.387,3690.724,13591.039,-260.272
14.100769,950,2255,692,-967,311,218,-8260.164,3686.044,13655.968,-364.317,495,181,303
14.120758,906,2232,772,-771,368,174,-8198.250,3670.003,13694.785,-456.139
14.140747,885,2203,896,-420,390,117,-8175.235,3645.070,13712.405,-533.276
14.160736,1027,2229,1022,-205,399,56,-8168.558,3618.041,13720.876,-597.868
14.180694,989,1923,1002,-149,355,37,-8153.067,3596.700,13732.480,-667.580
14.200683,928,1855,801,-291,364,104,-8115.849,3580.538,13754.216,-754.792,509,191,308
14.220672,876,1836,804,-348,429,154,-8091.099,3561.242,13768.263,-849.718
14.240661,766,1838,890,-280,491,150,-8077.929,3529.546,13777.747,-947.888
14.260650,726,1793,1019,-206,549,77,-8068.366,3482.294,13789.363,-1031.504
14.280639,636,1687,1062,-233,500,-59,-8038.410,3415.538,13818.258,-1099.653,509,191,308,33064
14.300628,644,1530,798,-419,447,-214,-7980.018,3326.686,13869.143,-1155.323,521,179,333
14.320617,714,1402,710,-546,422,-370,-7921.905,3219.652,13923.980,-1198.113
14.340606,735,1265,562,-539,407,-481,-7867.917,3103.769,13977.541,-1235.423
14.360595,746,1314,683,-479,412,-517,-7837.954,2986.327,14017.061,-1267.188
14.380554,656,1354,889,-256,435,-525,-7827.311,2868.491,14044.629,-1299.534
14.400573,584,1306,933,-231,449,-524,-7809.465,2747.996,14075.941,-1328.190,523,177,353
14.420532,525,1195,860,-289,425,-556,-7774.381,2623.163,14116.927,-1351.226
14.440551,540,1091,711,-385,386,-590,-7732.975,2495.933,14161.254,-1365.916
14.460540,489,932,491,-395,338,-628,-7693.532,2370.805,14203.312,-1374.849
14.480499,529,991,344,-374,322,-609,-7669.222,2248.003,14235.464,-1384.379
14.500518,506,1022,549,-180,311,-605,-7680.560,2134.551,14246.145,-1391.212,531,186,364
14.520477,448,1112,687,-7,356,-543,-7703.400,2027.555,14248.147,-1404.419
14.540466,429,1106,846,75,345,-505,-7725.599,1931.221,14248.962,-1409.974
14.560485,410,1123,850,17,290,-463,-7725.900,1841.846,14259.921,-1417.088
14.580444,376,1079,927,-117,255,-423,-7707.721,1757.829,14279.771,-1422.904
14.600433,383,1020,937,-239,215,-405,-7667.402,1676.058,14310.984,-1425.813,503,165,372
14.620422,361,914,812,-364,182,-401,-7611.002,1595.843,14349.897,-1428.921
14.640411,340,825,693,-453,171,-388,-7548.406,1515.703,14391.507,-1429.747
14.660400,378,842,675,-441,151,-400,-7501.932,1436.935,14424.149,-1426.737
14.680389,438,879,737,-298,151,-403,-7477.367,1361.845,14444.339,-1425.087
14.700378,459,939,837,-163,169,-375,-7467.699,1292.100,14455.062,-1431.976,500,164,375
14.720367,413,991,946,-86,215,-322,-7463.839,1227.722,14461.287,-1445.822
14.740326,411,1038,989,-61,235,-283,-7460.358,1165.983,14466.447,-1463.177
14.760406,417,1097,1056,-64,245,-269,-7456.040,1104.514,14471.752,-1480.322
14.780304,361,1055,1057,-77,239,-269,-7443.949,1040.714,14480.723,-1499.539,500,164,375,33017
14.800323,354,978,915,-138,252,-281,-7423.026,973.526,14494.774,-1512.581,486,175,386
14.820282,436,888,719,-174,208,-316,-7409.354,907.949,14505.843,-1514.280
14.840271,517,1086,675,-86,156,-332,-7420.660,849.939,14503.425,-1515.748
14.860290,497,1203,921,141,176,-282,-7479.102,804.881,14474.401,-1530.468
14.880279,465,1481,1032,410,229,-185,-7555.735,769.707,14433.623,-1557.041
14.900238,364,1458,1275,538,280,-126,-7643.804,738.180,14385.426,-1588.175,469,175,398
14.920227,355,1293,940,476,291,-114,-7691.356,698.821,14358.719,-1617.812
14.940216,501,1349,653,196,271,-161,-7719.825,651.999,14343.078,-1640.350
14.960205,608,1517,695,168,244,-200,-7775.124,609.281,14312.589,-1661.764
14.980194,659,1864,925,430,247,-174,-7866.762,578.823,14261.588,-1679.750
15.000183,668,2282,1361,635,194,-147,-7986.227,559.321,14194.394,-1691.727,458,174,408
15.020172,340,2140,1489,808,161,-111,-8089.686,544.936,14135.273,-1699.860
15.040161,300,2023,1058,516,110,-105,-8123.152,521.449,14119.842,-1675.709
15.060150,494,1966,570,68,-94,-255,-8132.331,485.113,14121.950,-1623.517
15.080139,641,1992,237,19,-197,-365,-8176.741,454.105,14104.492,-1559.950
15.100128,641,2221,343,418,-235,-342,-8299.150,450.346,14040.181,-1493.340,460,165,391
15.120117,479,2412,649,943,-298,-228,-8477.719,476.876,13939.735,-1421.303
15.140075,419,2611,808,1254,-399,-127,-8669.160,526.707,13828.465,-1333.125
15.160064,449,2808,996,1277,-546,-79,-8847.682,593.143,13721.668,-1232.057
15.180084,535,2896,982,1171,-639,-23,-8992.001,678.253,13632.544,-1128.296
15.200073,438,2956,841,929,-704,91,-9103.129,778.752,13560.057,-1042.534,460,170,386
15.220062,438,3167,748,724,-655,231,-9192.002,886.256,13498.259,-976.772
15.240051,459,3301,834,645,-564,315,-9280.647,995.991,13432.837,-933.766
15.260009,401,3240,966,668,-450,405,-9356.432,1105.086,13372.745,-917.117
15.279998,557,2969,1020,508,-337,486,-9397.305,1210.135,13334.445,-924.253,460,170,386,33054
15.299987,780,2613,976,237,-238,536,-9394.444,1308.168,13324.507,-962.317,445,185,360
15.319976,994,2528,773,-85,-111,615,-9353.961,1416.092,13337.119,-1027.037
15.339965,1150,2422,678,-263,-55,774,-9295.944,1547.327,13355.731,-1118.516
15.359954,1103,2432,841,-374,-50,983,-9235.710,1703.597,13368.310,-1234.156
15.379944,945,2321,877,-334,-4,1165,-9164.147,1875.149,13382.495,-1358.856
15.399933,668,2018,955,-408,-40,1220,-9083.635,2034.720,13401.264,-1479.544,455,192,332
15.419922,627,1827,994,-470,-3,1087,-8988.710,2162.018,13434.662,-1572.917
15.439911,829,1909,508,-629,-86,812,-8869.347,2249.524,13492.310,-1633.191
15.459900,924,1707,727,-731,-127,517,-8789.102,2313.226,13530.434,-1662.366
15.479889,755,1738,676,-394,-168,347,-8730.722,2361.306,13558.474,-1673.893
15.499878,655,1773,785,-296,-160,211,-8691.090,2388.588,13580.602,-1662.011,463,198,303
15.519867,620,1773,861,-238,-205,19,-8654.148,2389.866,13607.989,-1628.602
15.539856,557,1837,743,-220,-216,-160,-8617.554,2370.312,13640.429,-1579.090
15.559814,512,1847,782,-279,-222,-299,-8580.880,2330.324,13677.089,-1520.112
15.579803,509,1780,660,-256,-198,-415,-8546.251,2272.954,13715.435,-1455.178
15.599792,503,1753,802,-263,-185,-514,-8519.586,2203.536,13750.472,-1386.009,498,194,309
15.619781,386,1534,689,-208,-149,-566,-8491.023,2127.018,13786.793,-1318.362
15.639770,445,1553,570,-257,-132,-595,-8456.720,2044.391,13827.276,-1243.475
15.659759,495,1636,521,-278,-186,-653,-8428.356,1961.700,13863.665,-1161.372
15.679748,568,1782,558,-207,-190,-652,-8416.136,1886.586,13888.341,-1076.504
15.699737,500,1920,777,-57,-233,-609,-8424.686,1824.903,13897.532,-994.204,529,181,324
15.719726,148,1661,1019,76,-204,-518,-8433.837,1770.836,13904.020,-920.980
15.739715,148,1798,738,-28,-183,-474,-8403.524,1706.885,13934.683,-852.852
15.759704,223,1691,549,-291,-148,-544,-8362.647,1623.927,13972.570,-794.804
15.779693,270,1743,341,-333,-35,-590,-8333.657,1532.435,14002.798,-747.579,529,181,324,33048
15.799682,294,1813,605,-161,40,-589,-8343.682,1443.509,14008.270,-709.272,489,185,339
15.819671,177,1881,723,102,130,-506,-8376.877,1355.988,13997.712,-699.082
15.839660,199,2011,907,192,254,-440,-8413.056,1265.162,13984.151,-706.254
15.859619,359,2102,934,154,384,-409,-8431.938,1171.973,13979.367,-735.958
15.879608,449,2224,1049,11,453,-338,-8430.709,1088.968,13984.425,-780.131
15.899597,294,2141,1111,-127,449,-242,-8394.978,1023.407,14008.044,-828.929,485,191,352
15.919616,221,1888,840,-372,374,-144,-8326.408,968.650,14050.465,-867.484
15.939575,408,1770,704,-574,261,-157,-8241.237,916.174,14102.495,-893.148
15.959594,535,1673,679,-598,213,-175,-8169.902,872.046,14145.052,-919.333
15.979644,570,1659,697,-435,224,-106,-8120.074,852.142,14172.933,-949.558
15.999542,464,1589,848,-313,169,40,-8087.003,852.830,14189.161,-988.037,457,192,363
16.019561,418,1512,793,-199,171,145,-8055.665,862.249,14203.354,-1030.994
16.039520,422,1480,864,-215,167,174,-8027.709,869.860,14215.342,-1076.439
16.059509,469,1459,944,-173,193,159,-8005.778,871.259,14224.101,-1121.974
16.079498,499,1379,932,-135,211,119,-7982.959,867.946,14233.903,-1162.095
16.099487,475,1285,889,-165,177,75,-7957.230,861.248,14246.434,-1189.669,458,181,359
16.119476,382,1218,809,-177,116,20,-7929.871,846.288,14261.178,-1206.305
16.139465,330,1081,780,-173,98,-63,-7909.879,816.334,14273.612,-1211.127
16.159454,330,1047,763,-131,89,-182,-7899.764,767.852,14282.354,-1205.791
16.179443,300,1073,784,-63,99,-308,-7901.328,699.721,14286.132,-1192.172
16.199432,278,1127,849,-8,122,-428,-7911.297,613.223,14286.232,-1172.323,446,176,378
16.219421,207,1109,861,27,150,-536,-7919.029,507.351,14288.000,-1148.938
16.239410,219,1108,859,-16,189,-637,-7923.294,383.807,14291.373,-1125.250
16.259399,234,1131,837,-44,243,-712,-7923.761,247.227,14295.908,-1102.426
16.279388,280,1087,797,-47,272,-767,-7927.149,103.691,14297.351,-1082.012,446,176,378,33044
16.299347,350,1124,835,-42,303,-782,-7928.726,-39.798,14297.768,-1069.105,461,181,392
16.319336,399,1244,948,-44,342,-740,-7930.687,-174.705,14295.793,-1067.439
16.339325,394,1313,1069,-26,375,-655,-7928.083,-299.779,14294.322,-1078.618
16.359314,430,1416,1201,-73,408,-569,-7910.991,-413.177,14299.511,-1097.691
16.379303,430,1531,1266,-172,400,-485,-7875.985,-513.595,14313.781,-1120.798
16.399292,365,1545,1219,-277,379,-404,-7822.973,-600.887,14337.386,-1146.664,435,155,386
16.419281,402,1547,1144,-402,364,-327,-7754.868,-683.445,14368.308,-1175.616
16.439270,545,1625,977,-463,368,-302,-7688.227,-759.943,14397.500,-1208.750
16.459259,532,1724,1060,-404,378,-248,-7647.026,-826.272,14411.860,-1254.588
16.479248,413,1822,1111,-175,415,-177,-7636.839,-883.324,14409.295,-1306.173
16.499237,385,1977,1272,3,402,-158,-7646.862,-940.432,14396.157,-1351.738,429,179,387
16.519226,433,2109,1346,99,366,-201,-7662.773,-1000.722,14380.093,-1388.825
16.539215,453,2156,1459,103,336,-234,-7676.194,-1061.214,14365.217,-1423.323
16.559173,454,2119,1380,64,326,-229,-7675.604,-1117.145,14358.392,-1452.272
16.579193,470,2141,1277,-20,266,-206,-7673.158,-1163.056,14353.942,-1472.996
16.599182,416,2146,1176,-13,200,-169,-7676.655,-1195.708,14347.812,-1488.273,408,171,392
16.619171,260,2165,978,48,145,-117,-7696.897,-1218.542,14334.159,-1496.748
16.639160,238,2270,1001,165,75,-122,-7744.650,-1239.480,14306.960,-1493.458
16.659118,269,2323,1010,357,4,-172,-7815.286,-1259.789,14268.033,-1480.842
16.679107,406,2421,1214,469,-36,-195,-7894.987,-1273.933,14224.585,-1463.855
16.699096,317,2466,1199,462,-75,-164,-7952.161,-1275.543,14194.838,-1441.576,410,166,403
16.719116,254,2465,1121,285,-150,-91,-7984.165,-1264.424,14180.768,-1412.660
16.739074,202,2369,1093,112,-202,-28,-7998.225,-1245.610,14177.660,-1380.664
16.759063,282,2464,1063,34,-212,14,-8003.479,-1223.701,14179.324,-1352.431
16.779052,226,2466,1144,-5,-192,39,-7999.081,-1196.609,14185.912,-1333.483,410,166,403,33039
16.799041,142,2490,1102,-91,-181,103,-7989.882,-1164.586,14195.672,-1312.961,405,166,410
16.819030,194,2529,1091,-107,-194,130,-7976.837,-1129.495,14208.178,-1287.405
16.839019,239,2432,1036,-141,-230,119,-7952.512,-1092.719,14226.896,-1262.683
16.859008,257,2344,1053,-220,-227,145,-7925.854,-1050.600,14246.624,-1243.472
16.878997,304,2258,1164,-156,-227,187,-7907.980,-1000.525,14261.737,-1225.197
16.898986,431,2202,1000,-129,-256,220,-7884.001,-939.837,14280.477,-1209.397,403,174,403
16.918975,447,2187,971,-147,-238,304,-7857.739,-866.834,14299.271,-1212.778
16.938934,318,2279,1130,-162,-176,427,-7831.892,-781.125,14316.682,-1232.622
16.958954,184,2227,1164,-161,-115,523,-7801.870,-696.104,14334.787,-1263.164
16.978912,273,1936,977,-174,-63,505,-7769.305,-624.785,14353.681,-1286.397
16.998901,500,1676,797,-182,-104,401,-7741.153,-555.027,14371.436,-1289.866,399,155,386
17.018890,598,1565,604,-186,-208,360,-7710.061,-477.736,14390.478,-1294.727
17.038910,488,1746,792,-157,-180,442,-7701.103,-386.963,14396.014,-1316.617
17.058868,359,1887,1168,37,-121,538,-7698.205,-296.421,14396.463,-1351.690
17.078857,199,1974,1233,-28,-49,540,-7677.828,-220.452,14405.232,-1388.195
17.098846,200,1745,1271,-93,-32,449,-7654.285,-165.306,14417.359,-1399.929,397,170,400
17.118835,318,1510,999,-185,-128,249,-7595.798,-137.154,14449.444,-1390.703
17.138824,497,1303,644,-460,-142,97,-7509.121,-122.816,14496.416,-1373.816
17.158813,433,1199,592,-586,-142,64,-7436.902,-102.771,14534.633,-1364.481
17.178802,331,1272,766,-390,-112,132,-7398.443,-75.827,14554.608,-1362.387
17.198852,302,1296,920,-158,-93,141,-7380.733,-50.392,14564.283,-1356.224,417,166,399
17.218780,247,1304,863,-112,-108,102,-7358.064,-32.296,14576.999,-1343.270
17.238769,253,1337,864,-155,-137,40,-7334.491,-23.427,14591.402,-1315.716
17.258758,213,1393,895,-169,-187,-48,-7310.095,-25.312,14606.998,-1277.854
17.278747,154,1373,991,-167,-207,-123,-7287.210,-37.272,14622.457,-1230.596,417,166,399,33023
17.298736,270,1422,1024,-169,-214,-200,-7259.087,-60.171,14640.629,-1178.758,427,159,410
17.318695,348,1538,1139,-224,-210,-251,-7223.028,-85.812,14662.170,-1129.911
17.338714,307,1595,1321,-277,-185,-229,-7179.054,-106.533,14686.469,-1092.195
17.358703,294,1502,1437,-324,-126,-159,-7109.101,-122.003,14721.975,-1069.904
17.378662,326,1399,1152,-554,-55,-89,-6996.831,-140.350,14776.127,-1061.216
17.398681,374,1199,702,-778,-15,-74,-6875.413,-159.430,14833.157,-1056.488,434,171,420
17.418640,471,960,434,-738,13,-61,-6791.669,-167.780,14872.326,-1046.147
17.438629,460,798,330,-414,-93,-29,-6775.347,-154.004,14880.718,-1034.712
17.458618,423,960,553,65,-102,72,-6829.966,-118.901,14857.027,-1020.596
17.478607,356,1138,995,504,-186,143,-6946.211,-67.011,14804.411,-1005.247
17.498596,166,1234,1322,861,-195,198,-7079.555,-9.944,14742.168,-991.834,427,171,417
17.518585,93,1064,1257,840,-164,216,-7163.767,41.602,14703.124,-965.552
17.538574,198,1044,1013,358,-246,146,-7193.670,78.917,14690.484,-932.734
17.558563,339,1042,1011,200,-254,75,-7225.149,111.118,14677.001,-897.746
17.578552,354,1021,1017,222,-260,64,-7263.790,148.596,14659.862,-859.740
17.598541,135,1162,1292,284,-302,84,-7312.266,188.720,14637.879,-814.296,421,155,440
17.618530,122,1252,1146,334,-373,53,-7349.151,225.648,14622.679,-742.796
17.638519,220,1355,1244,210,-487,-38,-7383.112,257.019,14609.350,-652.632
17.658508,291,1537,1406,256,-557,-98,-7423.314,289.739,14592.431,-553.944
17.678497,266,1753,1507,267,-593,-91,-7450.813,330.191,14581.088,-451.310
17.698486,148,1789,1469,140,-650,-52,-7448.676,382.750,14583.875,-341.676,421,160,430
17.718444,44,1833,1479,-69,-727,-13,-7423.257,443.542,14597.419,-222.055
17.738464,-54,1804,1373,-161,-783,5,-7387.258,505.617,14614.994,-100.711
17.758423,112,1804,1294,-229,-791,0,-7350.649,566.512,14631.543,20.227
17.778412,242,1887,1257,-188,-753,14,-7325.339,633.191,14641.070,113.972,421,160,430,33029
17.798401,191,2059,1255,-99,-588,157,-7319.690,714.270,14639.666,166.024,417,171,427
17.818390,130,2315,1574,12,-410,342,-7336.806,804.303,14626.276,178.522
17.838379,21,2326,1777,142,-223,474,-7345.383,894.146,14616.946,161.768
17.858368,92,2301,1499,-64,-105,507,-7301.838,978.002,14633.660,134.560
17.878357,192,2298,1174,-370,-83,487,-7230.591,1060.292,14663.477,110.501
17.898346,288,2373,1285,-512,-120,460,-7185.698,1137.769,14679.887,86.987,414,165,414
17.918335,208,2406,1518,-154,-61,443,-7181.196,1204.507,14676.947,47.427
17.938324,101,2359,1497,-32,61,430,-7174.486,1255.495,14676.032,2.411
17.958313,238,2342,1301,-107,107,335,-7154.687,1288.142,14682.836,-30.065
17.978302,307,2355,1338,-135,63,200,-7148.606,1304.347,14684.276,-59.778
17.998291,306,2430,1485,-27,142,135,-7160.228,1307.441,14678.120,-99.848,404,165,412
18.018280,100,2367,1501,67,231,101,-7171.644,1295.075,14673.238,-147.751
18.038269,95,2191,1206,-7,303,20,-7159.158,1257.558,14682.084,-191.946
18.058227,290,2074,1153,-188,319,-143,-7140.618,1197.672,14695.599,-227.971
18.078216,399,1913,946,-144,344,-252,-7132.418,1129.673,14704.292,-267.731
18.098236,402,1864,1058,-76,371,-251,-7142.998,1069.282,14702.907,-306.867,431,163,412
18.118225,247,1772,1049,60,349,-202,-7158.781,1014.376,14698.155,-350.106
18.138214,144,1708,1056,45,366,-176,-7170.944,954.979,14695.099,-393.803
18.158172,110,1759,1096,28,391,-216,-7178.805,881.319,14694.559,-439.776
18.178161,125,1695,1174,1,445,-293,-7182.708,790.008,14696.425,-484.873
18.198150,281,1664,1231,-53,467,-389,-7169.888,685.612,14706.330,-530.977,434,171,413
18.218139,286,1593,1034,-175,516,-429,-7130.628,576.579,14727.946,-587.138
18.238128,240,1433,839,-362,546,-415,-7076.855,468.380,14755.262,-645.305
18.258117,232,1221,631,-392,556,-412,-7034.242,358.188,14776.177,-700.827
18.278106,310,1281,625,-239,526,-446,-7031.572,246.627,14777.402,-748.336,434,171,413,33013
18.298095,341,1310,789,46,511,-471,-7064.131,137.782,14760.743,-796.855,438,160,421
18.318084,379,1412,924,196,522,-444,-7107.161,36.087,14737.927,-846.108
18.338043,492,1572,1049,262,495,-405,-7149.901,-55.341,14714.113,-897.860
18.358032,490,1645,1288,222,506,-335,-7175.872,-138.144,14696.758,-963.602
18.378051,401,1653,1267,80,564,-248,-7161.488,-214.822,14697.757,-1038.415
18.398040,357,1604,1139,-202,566,-198,-7109.299,-291.874,14716.631,-1108.553,434,157,413
18.418090,373,1607,980,-407,533,-218,-7038.405,-373.954,14744.216,-1168.139
18.437988,510,1656,936,-494,483,-270,-6972.381,-459.805,14769.483,-1213.382
18.457977,580,1690,1088,-373,399,-326,-6939.306,-539.756,14779.402,-1248.755
18.477966,553,1749,1311,-179,353,-312,-6919.629,-609.425,14783.106,-1281.620
18.497955,448,1769,1503,-135,311,-268,-6892.600,-671.527,14790.972,-1305.262,422,166,429
18.517944,403,1771,1514,-230,234,-262,-6844.147,-733.174,14810.179,-1309.250
18.537933,458,1686,1472,-375,127,-310,-6774.617,-796.319,14840.417,-1291.477
18.557953,487,1613,1435,-522,15,-348,-6690.114,-857.024,14878.192,-1258.058
18.577911,494,1622,1332,-593,-83,-356,-6601.394,-908.901,14918.559,-1211.412
18.597900,430,1628,1366,-549,-131,-325,-6540.861,-951.290,14946.093,-1167.010,428,168,426
18.617889,402,1650,1474,-340,-152,-289,-6506.303,-985.717,14962.415,-1121.593
18.637878,351,1663,1580,-210,-164,-263,-6483.225,-1014.738,14973.852,-1075.768
18.657867,249,1655,1382,-168,-191,-251,-6455.587,-1038.793,14988.354,-1015.367
18.677856,302,1618,1365,-241,-296,-258,-6436.088,-1060.678,14999.837,-944.480
18.697845,339,1550,1378,-124,-339,-269,-6434.604,-1075.782,15003.799,-871.781,423,153,454
18.717834,331,1545,1446,-12,-355,-226,-6448.853,-1079.242,15001.055,-807.043
18.737823,303,1515,1404,81,-342,-147,-6465.895,-1068.924,14997.467,-749.005
18.757812,272,1499,1379,68,-340,-62,-6477.439,-1048.348,14996.476,-696.345
18.777801,196,1435,1306,32,-330,0,-6485.647,-1021.608,14996.840,-650.337,423,153,454,32995
18.797790,187,1448,1186,33,-292,44,-6499.842,-992.098,14994.224,-613.579,408,142,455
18.817749,210,1428,1201,107,-255,69,-6528.122,-961.592,14984.933,-588.375
18.837738,199,1432,1223,180,-191,99,-6564.193,-929.960,14971.711,-574.329
18.857727,214,1457,1226,232,-148,124,-6600.725,-897.327,14957.853,-568.601
18.877716,230,1416,1266,215,-102,150,-6633.275,-864.019,14945.367,-569.725
18.897705,281,1433,1155,193,-72,170,-6654.583,-827.399,14937.604,-579.102,402,143,454
18.917694,282,1408,1128,102,-25,216,-6667.476,-785.482,14933.347,-598.645
18.937683,203,1399,1205,75,4,273,-6677.346,-738.025,14930.329,-623.767
18.957672,253,1436,1205,56,30,307,-6683.920,-690.959,14928.389,-653.009
18.977661,260,1415,1239,101,35,307,-6693.949,-642.270,14924.594,-685.900
18.997650,247,1481,1368,78,55,336,-6698.059,-591.993,14922.942,-725.803,392,139,463
19.017639,263,1392,1373,61,80,349,-6692.732,-543.558,14924.994,-769.338
19.037628,335,1322,1221,-90,125,357,-6664.036,-496.087,14937.037,-815.404
19.057617,466,1262,1081,-172,129,364,-6632.545,-441.578,14950.217,-860.694
19.077606,471,1238,994,-153,118,419,-6618.099,-374.779,14955.198,-915.306
19.097595,413,1361,1048,12,130,500,-6640.489,-299.509,14943.083,-976.679,388,149,455
19.117584,304,1504,1431,285,139,518,-6699.545,-226.400,14913.968,-1036.265
19.137573,395,1575,1796,434,134,467,-6758.669,-162.717,14884.963,-1080.379
19.157562,454,1422,1533,360,48,374,-6761.060,-108.243,14882.047,-1111.966
19.177551,611,1278,1039,-146,11,337,-6712.778,-53.300,14903.029,-1127.352
19.197540,613,1259,693,-285,-112,337,-6686.930,15.921,14914.562,-1129.594,393,152,457
19.217498,354,1356,925,-11,-182,381,-6742.211,92.235,14889.496,-1128.024
19.237487,277,1741,1428,597,-218,333,-6864.751,160.805,14834.584,-1104.486
19.257507,375,1684,1917,847,-279,205,-6994.422,214.316,14776.539,-1058.982
19.277465,470,1781,1610,742,-380,78,-7039.514,258.891,14757.987,-1007.699,393,152,457,33027
19.297454,572,1544,1051,91,-336,101,-7017.686,307.963,14770.511,-961.608,418,151,456
19.317444,396,1458,640,-216,-396,167,-6999.300,366.548,14780.348,-923.138
19.337433,83,1731,724,23,-333,216,-7052.065,420.654,14755.949,-888.157
19.357422,-87,1623,1086,513,-293,135,-7172.360,449.205,14700.003,-837.138
19.377411,153,1717,1099,834,-314,-86,-7301.134,447.771,14640.364,-766.897
19.397400,328,1761,1149,843,-294,-264,-7429.308,429.282,14579.696,-699.280,433,158,449
19.417389,249,1788,1066,761,-226,-288,-7534.683,408.706,14528.493,-647.951
19.437378,218,1840,995,609,-175,-248,-7621.626,387.913,14485.556,-603.700
19.457367,200,1859,1096,515,-125,-230,-7701.240,364.526,14445.377,-569.695
19.477356,153,1878,1229,499,-72,-218,-7774.230,336.328,14407.895,-544.282
19.497345,115,1946,1427,429,-15,-225,-7828.896,299.993,14379.846,-523.308,431,168,440
19.517334,104,1966,1588,278,22,-263,-7841.871,251.814,14374.304,-506.439
19.537323,158,1848,1434,-55,63,-306,-7793.716,193.877,14401.882,-491.550
19.557312,272,1646,1200,-459,76,-335,-7700.942,134.441,14452.870,-476.854
19.577301,353,1395,710,-699,60,-318,-7582.574,87.783,14516.123,-463.125
19.597290,323,1232,199,-785,18,-228,-7481.454,56.253,14568.768,-459.459,428,177,421
19.617248,344,1293,138,-545,46,-131,-7469.710,39.599,14574.679,-464.794
19.637298,350,1501,545,196,75,-50,-7561.927,37.219,14526.633,-477.733
19.657226,303,1766,1051,734,70,23,-7704.205,45.494,14451.040,-496.021
19.677215,337,1986,1432,986,77,75,-7841.922,60.021,14376.070,-514.480
19.697204,455,1992,1527,793,59,101,-7907.270,83.466,14339.580,-529.137,416,187,398
19.717193,450,1908,1232,175,-16,163,-7874.135,121.119,14357.177,-538.737
19.737182,342,1833,957,-350,-104,233,-7798.958,169.486,14397.524,-542.459
19.757171,213,1899,1108,-524,-140,260,-7730.297,213.136,14434.136,-536.873
19.777160,189,1843,1283,-383,-193,168,-7676.235,244.017,14463.502,-508.329
19.797149,151,1794,1243,-378,-258,37,-7609.365,259.658,14500.080,-461.793,405,162,420,33021
19.817138,143,1781,1176,-447,-305,-84,-7535.917,259.267,14540.087,-405.016
19.837097,111,1718,1113,-485,-291,-181,-7470.923,243.654,14575.322,-348.388
19.857116,53,1699,1083,-378,-237,-251,-7429.510,211.838,14598.089,-297.906
19.877075,21,1718,1187,-202,-148,-316,-7413.609,161.635,14607.558,-258.736
19.897064,15,1725,1224,-67,-26,-378,-7411.756,94.295,14609.519,-233.167,404,182,400
19.917083,81,1640,1125,-11,79,-423,-7412.199,15.589,14609.777,-221.179
19.937072,179,1571,991,-3,177,-432,-7419.969,-64.878,14605.672,-222.779
19.957031,238,1632,1107,78,236,-393,-7448.417,-137.944,14590.434,-238.197
19.977020,153,1749,1330,233,280,-310,-7492.731,-201.303,14566.495,-266.665
19.997009,103,1911,1602,298,313,-238,-7532.915,-259.643,14544.215,-298.356,417,176,420
20.016998,28,1953,1806,222,312,-221,-7537.474,-320.044,14539.983,-329.207
20.036987,16,1802,1547,-101,312,-237,-7477.232,-385.659,14568.807,-357.188
20.056976,-9,1613,1127,-529,352,-250,-7370.418,-450.686,14620.492,-387.911
20.076965,-21,1560,1011,-708,356,-221,-7273.675,-513.145,14666.006,-417.179
20.096954,-33,1572,957,-540,290,-230,-7224.209,-578.498,14687.198,-444.756,406,165,423
20.116943,49,1661,1174,-156,310,-284,-7228.772,-650.573,14681.273,-466.131
20.136932,85,1665,1200,84,279,-325,-7246.739,-720.303,14668.426,-488.530
20.156921,118,1579,1003,119,293,-291,-7259.600,-775.824,14658.438,-511.793
20.176910,-68,1576,880,71,247,-193,-7278.859,-817.383,14645.483,-543.458
20.196899,35,1680,914,183,298,-118,-7328.956,-861.130,14616.473,-582.259,398,171,417
20.216888,152,1723,1071,419,282,-160,-7403.650,-905.639,14574.450,-621.796
20.236847,196,1658,1233,482,312,-145,-7469.338,-947.648,14535.975,-672.186
20.256866,283,1602,924,367,363,-95,-7490.791,-979.039,14520.211,-726.935
20.276825,348,1534,771,84,336,3,-7501.363,-992.185,14510.998,-781.974
20.296814,386,1556,760,97,295,99,-7527.005,-987.740,14494.432,-845.832,386,157,436,33017
20.316803,426,1636,963,246,309,203,-7568.124,-969.945,14469.510,-922.728
20.336792,468,1649,1065,302,330,291,-7605.259,-939.813,14446.459,-1006.000
20.356811,518,1723,1114,260,332,371,-7623.649,-899.719,14432.703,-1096.808
20.376770,530,1743,1065,119,345,446,-7618.662,-851.212,14431.002,-1188.712
20.396759,535,1758,1105,-28,308,491,-7597.636,-797.669,14437.890,-1273.747,391,157,434
20.416748,505,1813,1157,-110,268,494,-7562.933,-745.003,14451.911,-1350.826
20.436737,512,1771,1182,-200,223,464,-7519.443,-696.565,14470.950,-1414.152
20.456726,538,1743,1116,-263,171,404,-7466.354,-654.037,14495.715,-1461.329
20.476715,585,1676,1039,-315,79,334,-7409.416,-615.145,14523.429,-1492.511
20.496704,596,1619,909,-356,32,289,-7350.122,-577.690,14553.060,-1511.907,402,177,426
20.516693,564,1664,967,-348,-35,254,-7303.834,-539.979,14576.769,-1521.730
20.536682,487,1663,1046,-245,-75,224,-7271.620,-503.105,14594.122,-1522.326
20.556671,420,1605,1094,-178,-123,185,-7241.827,-471.329,14611.191,-1510.731
20.576629,429,1592,1031,-203,-162,121,-7205.968,-448.899,14631.860,-1488.835
20.596618,429,1601,970,-243,-189,49,-7172.063,-433.698,14651.918,-1459.505,408,169,417
20.616607,378,1656,1021,-207,-207,2,-7150.247,-423.530,14666.143,-1426.280
20.636596,386,1658,1094,-131,-197,-39,-7140.269,-421.735,14674.222,-1393.316
20.656585,384,1719,1207,-64,-179,-92,-7134.567,-427.778,14679.824,-1361.311
20.676574,413,1757,1323,-63,-138,-120,-7124.368,-439.505,14686.894,-1334.461
20.696563,370,1734,1344,-98,-103,-127,-7101.995,-452.511,14699.304,-1312.559,420,176,431
20.716552,386,1662,1283,-197,-77,-106,-7064.804,-465.938,14718.500,-1293.307
20.736541,403,1579,1157,-280,-67,-97,-7021.621,-478.474,14740.241,-1276.180
20.756530,405,1560,1102,-288,-65,-82,-6986.580,-487.203,14757.862,-1261.459
20.776550,377,1578,973,-194,-62,-63,-6967.347,-490.591,14768.015,-1247.621
20.796508,393,1602,1215,-106,-76,-40,-6974.192,-487.663,14766.285,-1230.890,423,172,428,33007
20.816497,374,1643,1397,109,-118,-33,-6995.591,-476.403,14758.496,-1207.054
20.836486,412,1651,1398,116,-176,-4,-6994.692,-456.086,14762.089,-1175.772
20.856537,330,1643,1402,-100,-231,44,-6963.229,-427.208,14780.311,-1144.016
20.876434,306,1535,1235,-259,-259,99,-6911.482,-390.953,14808.441,-1106.389
20.896454,259,1412,1091,-361,-306,126,-6853.863,-350.882,14839.301,-1063.968,423,165,435
20.916412,270,1383,1174,-350,-337,125,-6816.668,-310.505,14860.623,-1016.826
20.936401,252,1457,1383,-177,-353,104,-6792.981,-271.485,14875.316,-970.619
20.956390,305,1530,1472,-145,-330,95,-6765.869,-236.082,14891.079,-926.540
20.976379,207,1521,1381,-190,-311,86,-6726.355,-204.523,14911.839,-887.017
20.996399,215,1495,1305,-269,-278,77,-6684.916,-180.372,14932.866,-851.063,421,153,442
21.016357,227,1480,1190,-256,-232,40,-6645.780,-165.841,14951.993,-824.286
21.036346,262,1536,1230,-219,-152,11,-6629.429,-160.185,14960.182,-808.327
21.056335,347,1601,1285,-52,-75,-12,-6631.234,-158.609,14959.703,-802.677
21.076324,359,1635,1326,35,-11,-4,-6641.224,-157.638,14954.768,-812.182
21.096313,358,1666,1281,57,66,31,-6648.587,-156.001,14950.359,-833.154,415,154,455
21.116302,424,1695,1159,34,121,55,-6656.101,-154.849,14945.596,-858.448
21.136291,456,1751,1146,57,124,57,-6672.304,-152.257,14936.668,-888.003
21.156280,474,1807,1195,123,150,77,-6696.604,-147.079,14923.868,-920.587
21.176269,477,1869,1263,156,148,89,-6722.217,-140.841,14910.418,-952.273
21.196258,391,1926,1281,148,141,88,-6741.170,-137.887,14899.991,-981.483,423,163,463
21.216247,434,1913,1310,95,141,55,-6747.827,-142.682,14895.442,-1003.841
21.236236,488,1815,1269,-11,118,-2,-6737.761,-156.937,14898.561,-1022.872
21.256225,464,1756,1149,-113,125,-46,-6716.407,-177.269,14906.681,-1041.516
21.276275,406,1693,1065,-165,144,-71,-6692.550,-203.756,14915.692,-1061.042
21.296203,383,1698,983,-163,155,-107,-6678.083,-239.310,14920.534,-1076.585,415,157,469,33001
21.316162,439,1794,1120,-76,160,-177,-6683.412,-286.759,14916.405,-1089.069
21.336151,457,1876,1405,51,176,-251,-6700.417,-343.750,14906.581,-1102.501
21.356140,306,1842,1502,77,207,-294,-6694.731,-410.069,14906.437,-1116.234
21.376220,300,1764,1273,-174,224,-336,-6643.666,-491.503,14926.635,-1118.541
21.396118,333,1666,947,-437,189,-440,-6572.147,-590.686,14955.300,-1110.142
21.416107,364,1621,946,-491,182,-545,-6526.222,-700.445,14971.534,-1098.357,420,145,460
21.436096,329,1754,1218,-231,186,-603,-6520.781,-815.022,14968.425,-1094.002
21.456085,302,1923,1707,-16,261,-623,-6529.862,-936.375,14957.050,-1098.266
21.476135,217,1965,1890,-10,317,-642,-6500.289,-1068.210,14960.396,-1107.774
21.496063,243,1843,1604,-368,380,-673,-6397.497,-1215.746,14992.653,-1117.940
21.516052,241,1608,1128,-816,434,-713,-6249.456,-1375.627,15040.080,-1132.866,416,168,470
21.536041,226,1442,722,-982,495,-743,-6118.224,-1543.255,15076.096,-1154.321
21.556030,296,1493,749,-697,547,-786,-6073.105,-1714.417,15072.994,-1190.993
21.576019,357,1651,1169,-58,590,-825,-6113.272,-1882.744,15032.321,-1244.165
21.596008,333,1810,1478,366,639,-816,-6182.083,-2044.457,14977.582,-1307.486
21.615966,339,1819,1592,437,646,-771,-6225.030,-2197.334,14932.928,-1365.218,398,137,474
21.635986,289,1803,1508,167,606,-711,-6218.682,-2344.316,14908.465,-1416.075
21.655944,358,1776,1400,-112,585,-667,-6184.097,-2488.680,14895.103,-1461.084
21.675933,427,1790,1442,-221,578,-647,-6146.149,-2628.523,14881.742,-1511.591
21.695953,409,1848,1443,-198,603,-601,-6106.377,-2760.662,14868.433,-1567.173
21.715912,262,1834,1495,-215,610,-556,-6067.939,-2891.649,14853.127,-1624.357,388,135,492
21.735901,134,1836,1576,-192,610,-577,-6036.593,-3031.854,14832.474,-1673.481
21.755890,168,1868,1733,-130,590,-668,-6011.454,-3187.242,14805.683,-1712.047
21.775879,303,1872,1808,-157,556,-779,-5970.363,-3353.580,14782.540,-1737.877
21.795868,370,1752,1574,-298,526,-819,-5903.742,-3516.375,14769.949,-1750.708,388,135,492,33011
21.815857,351,1476,1325,-452,447,-777,-5830.889,-3661.204,14763.996,-1748.190,379,128,497
21.835846,363,1276,1212,-446,323,-696,-5786.463,-3780.971,14752.609,-1736.966
21.855835,427,1088,1155,-181,191,-602,-5790.602,-3870.135,14728.879,-1728.162
21.875824,318,966,1334,99,99,-470,-5829.591,-3926.680,14698.707,-1726.409
21.895782,183,1313,1472,279,42,-311,-5877.047,-3959.362,14670.420,-1731.473
21.915802,130,1346,1680,312,36,-197,-5920.286,-3982.189,14646.347,-1735.611,381,120,504
21.935791,282,1336,1604,198,0,-162,-5931.847,-3999.116,14638.377,-1724.415
21.955780,357,1388,1475,-7,-50,-108,-5917.208,-4002.361,14644.498,-1715.182
21.975769,275,1381,1568,-140,-17,26,-5895.747,-3986.482,14656.892,-1720.200
21.995758,111,1362,1406,-103,17,154,-5864.956,-3961.455,14675.044,-1728.489
22.015747,-65,1312,1381,-184,19,183,-5838.484,-3945.364,14689.207,-1734.602,368,107,500
22.035705,18,1433,1344,-125,18,86,-5831.202,-3949.009,14691.519,-1731.219
22.055694,65,1511,1380,8,-1,-76,-5844.754,-3969.763,14680.805,-1728.938
22.075775,-81,1484,1496,95,36,-161,-5867.504,-4003.623,14661.994,-1733.424
22.095672,-21,1473,1553,137,83,-234,-5883.069,-4054.012,14641.857,-1733.762
22.115661,135,1423,1512,55,117,-326,-5876.057,-4120.021,14626.146,-1734.553,369,113,511
22.135650,163,1399,1247,-108,188,-360,-5840.884,-4188.287,14620.637,-1736.295
22.155639,75,1376,1137,-240,200,-320,-5813.921,-4250.809,14612.147,-1746.292
22.175628,-20,1368,1043,-83,217,-294,-5814.809,-4310.649,14592.131,-1763.929
22.195617,-66,1406,1119,91,218,-312,-5843.399,-4373.072,14559.073,-1788.781
22.215606,49,1511,1223,258,238,-351,-5890.458,-4439.661,14516.078,-1819.563,369,111,513
22.235595,176,1584,1395,347,267,-376,-5937.151,-4505.898,14471.050,-1863.138
22.255584,126,1546,1548,332,337,-327,-5959.846,-4568.001,14435.323,-1915.849
22.275573,153,1415,1484,143,399,-255,-5940.657,-4629.408,14417.085,-1964.755
22.295562,228,1424,1432,-114,423,-215,-5892.204,-4691.497,14410.344,-2012.259,369,111,513,33013
22.315521,338,1460,1285,-216,455,-187,-5837.789,-4746.765,14407.625,-2060.145,354,125,520
22.335540,255,1437,1418,-231,433,-131,-5796.776,-4791.418,14401.356,-2115.675
22.355529,52,1330,1322,-85,424,-90,-5762.690,-4833.013,14394.559,-2159.977
22.375518,-10,1322,1174,-155,324,-138,-5732.029,-4887.982,14384.405,-2185.360
22.395477,252,1277,1466,-88,279,-276,-5738.447,-4955.070,14355.369,-2208.237
22.415466,417,1224,1570,150,254,-369,-5744.249,-5017.971,14327.386,-2232.715,358,122,507
22.435455,385,1192,1461,13,253,-288,-5721.133,-5065.733,14315.909,-2257.692
22.455444,260,1067,1362,-105,265,-156,-5687.470,-5101.747,14311.916,-2286.778
22.475433,117,1088,1088,-151,267,-97,-5651.309,-5136.706,14309.999,-2310.049
22.495422,16,1054,940,-146,237,-128,-5644.252,-5181.371,14292.322,-2336.832
22.515411,72,1048,865,110,242,-248,-5680.822,-5237.960,14252.181,-2367.024,358,112,512
22.535400,85,1473,747,361,236,-367,-5748.465,-5302.940,14193.688,-2410.113
22.555389,-55,1712,1192,537,282,-422,-5857.917,-5374.261,14110.678,-2475.142
22.575378,-53,1685,1152,841,353,-501,-5967.245,-5458.309,14021.930,-2533.725
22.595367,35,1601,1182,609,354,-579,-6031.017,-5566.156,13941.484,-2591.373
22.615356,290,1718,1231,466,500,-637,-6076.045,-5683.307,13861.703,-2659.005,365,114,519
22.635345,222,1925,1694,380,609,-610,-6102.690,-5798.054,13784.861,-2748.232
22.655334,38,1843,1656,291,720,-520,-6073.577,-5917.247,13732.324,-2820.736
22.675323,110,1787,1353,-196,694,-508,-5986.439,-6052.338,13704.876,-2853.694
22.695312,164,1615,1044,-517,646,-569,-5880.374,-6193.838,13683.219,-2874.460
22.715271,235,1549,977,-573,632,-580,-5800.754,-6326.590,13650.821,-2901.037,374,123,506
22.735290,188,1641,933,-270,583,-571,-5765.803,-6442.582,13602.232,-2943.363
22.755249,133,1627,1212,-34,543,-532,-5767.183,-6544.129,13542.201,-2993.026
22.775238,134,1762,1149,187,463,-519,-5783.228,-6638.148,13479.023,-3039.840
22.795227,121,1703,1297,227,425,-514,-5816.075,-6724.935,13410.855,-3087.539,374,123,506,32992
22.815246,146,1711,1410,317,371,-504,-5849.018,-6805.582,13345.371,-3132.019,359,113,518
22.835205,108,1716,1459,286,362,-463,-5866.802,-6881.559,13288.451,-3174.472
22.855194,67,1670,1413,156,384,-405,-5862.914,-6956.480,13241.327,-3215.011
22.875183,87,1624,1269,44,412,-362,-5841.508,-7031.935,13201.114,-3254.949
22.895172,144,1604,1183,-23,445,-333,-5817.208,-7104.350,13160.513,-3305.242
22.915161,217,1601,1102,33,505,-291,-5799.727,-7168.475,13116.481,-3371.865,359,111,527
22.935150,250,1604,1109,139,541,-231,-5798.241,-7219.355,13067.060,-3456.690
22.955139,257,1613,1174,288,551,-165,-5809.924,-7258.065,13014.436,-3553.190
22.975128,230,1588,1138,382,541,-119,-5829.323,-7288.250,12961.681,-3651.117
22.995117,255,1625,1195,400,504,-97,-5854.532,-7313.297,12909.327,-3744.978
23.015075,298,1674,1174,434,455,-93,-5882.766,-7334.060,12859.137,-3831.794,362,106,520
23.035095,282,1688,1237,409,400,-86,-5909.712,-7350.630,12813.627,-3910.234
23.055084,223,1691,1155,369,360,-64,-5928.552,-7366.014,12775.197,-3977.924
23.075073,219,1661,1146,288,324,-62,-5945.163,-7382.552,12738.808,-4038.710
23.095062,207,1632,1043,275,309,-74,-5961.537,-7400.835,12701.559,-4097.993
23.115020,187,1673,1091,278,313,-88,-5980.456,-7421.220,12661.088,-4158.355,379,116,518
23.135040,136,1673,1048,293,318,-110,-5999.005,-7446.371,12618.098,-4216.933
23.154998,129,1695,1066,269,328,-143,-6014.798,-7478.748,12572.760,-4272.198
23.174987,163,1748,1038,245,343,-185,-6026.520,-7519.321,12524.632,-4325.495
23.194976,193,1787,1072,214,372,-223,-6033.752,-7566.005,12474.416,-4378.786
23.214965,210,1816,1114,185,396,-243,-6033.820,-7616.277,12425.489,-4430.349,380,122,519
23.234954,240,1846,1118,132,409,-243,-6021.968,-7669.674,12381.134,-4478.276
23.254944,214,1832,1137,47,425,-230,-5996.546,-7725.513,12342.887,-4521.774
23.274933,237,1799,1083,-37,436,-207,-5959.131,-7782.638,12310.721,-4560.799
23.294983,211,1756,1014,-104,438,-191,-5917.769,-7839.762,12280.329,-4598.596,380,122,519,33007
23.314911,236,1784,980,-114,441,-187,-5879.980,-7896.195,12247.664,-4637.466,379,132,504
23.334900,246,1789,1031,-68,434,-198,-5848.381,-7952.166,12210.509,-4679.572
23.354858,259,1801,1031,-32,441,-212,-5818.400,-8008.603,12171.294,-4722.662
23.374847,247,1796,1020,-33,450,-217,-5787.347,-8066.459,12130.319,-4767.562
23.394836,317,1808,1035,-30,467,-224,-5754.202,-8126.067,12087.775,-4814.283
23.414856,331,1793,1033,-34,488,-225,-5713.779,-8186.588,12045.618,-4865.287,382,119,514
23.434845,318,1748,970,-70,539,-197,-5660.272,-8247.661,12006.832,-4920.245
23.454803,290,1765,925,-125,581,-162,-5600.263,-8308.911,11968.726,-4978.361
23.474792,234,1725,928,-106,611,-153,-5547.778,-8369.331,11922.701,-5045.897
23.494781,159,1730,853,-28,636,-176,-5500.104,-8434.393,11869.090,-5115.664
23.514770,127,1772,827,-6,660,-233,-5460.876,-8508.243,11803.291,-5187.137,385,134,512
23.534759,120,1835,803,55,677,-328,-5433.059,-8589.824,11725.540,-5257.751
23.554748,162,1853,819,93,663,-411,-5416.274,-8675.372,11639.865,-5324.553
23.574737,164,1904,830,134,638,-464,-5402.959,-8762.124,11551.263,-5388.596
23.594726,188,1912,861,121,623,-477,-5389.808,-8847.653,11464.731,-5446.501
23.614715,295,1912,916,112,586,-470,-5378.362,-8926.890,11382.802,-5500.099,394,122,519
23.634704,331,1890,1058,99,536,-425,-5357.853,-8996.706,11313.091,-5549.963
23.654693,282,1933,1058,19,520,-324,-5316.211,-9059.390,11264.814,-5586.120
23.674682,214,1903,1035,-151,460,-218,-5259.985,-9117.291,11234.473,-5606.212
23.694671,238,1858,965,-263,394,-160,-5199.945,-9170.949,11216.452,-5610.785
23.714660,328,1734,945,-324,310,-130,-5143.483,-9216.190,11207.336,-5606.911,400,125,530
23.734649,433,1760,950,-308,235,-85,-5089.987,-9247.465,11207.875,-5603.158
23.754638,477,1764,1087,-285,195,11,-5035.830,-9262.624,11217.880,-5607.033
23.774597,500,1732,1085,-251,180,123,-4974.352,-9262.689,11242.881,-5611.727
23.794616,504,1656,973,-288,149,247,-4904.863,-9250.305,11282.220,-5614.368,400,125,530,33017
23.814575,508,1647,876,-343,105,347,-4836.183,-9224.631,11332.640,-5614.641,408,108,525
23.834564,501,1666,864,-283,54,414,-4785.107,-9184.066,11382.598,-5623.839
23.854553,449,1721,920,-125,8,434,-4759.653,-9132.144,11425.759,-5642.439
23.874542,368,1774,1078,14,-44,407,-4756.363,-9078.738,11461.761,-5658.355
23.894531,288,1811,1101,89,-121,325,-4763.812,-9035.844,11492.889,-5657.609
23.914520,205,1792,1010,18,-179,211,-4774.265,-9011.897,11516.971,-5637.988,422,118,532
23.934509,171,1770,1043,-51,-211,69,-4790.470,-9006.313,11529.754,-5606.953
23.954498,289,1771,1105,-48,-201,-63,-4811.908,-9013.540,11531.615,-5573.053
23.974487,393,1782,1194,-57,-188,-142,-4824.625,-9028.303,11531.192,-5538.932
23.994476,455,1771,1274,-128,-133,-131,-4811.972,-9046.333,11540.014,-5502.025
24.014465,466,1719,1209,-285,-78,-53,-4768.279,-9063.988,11564.035,-5460.417,427,118,539
24.034454,503,1690,1126,-443,-39,51,-4704.448,-9076.845,11600.898,-5416.054
24.054443,422,1615,1120,-507,-26,139,-4632.099,-9082.687,11645.326,-5373.104
24.074432,307,1586,979,-536,-31,198,-4561.630,-9085.622,11692.934,-5324.822
24.094421,225,1600,858,-515,-89,178,-4516.022,-9088.161,11731.719,-5273.810
24.114410,223,1617,898,-364,-161,77,-4508.334,-9091.337,11752.132,-5229.276,427,116,537
24.134369,269,1697,1020,-142,-219,-49,-4537.521,-9093.850,11757.189,-5188.135
24.154388,333,1729,1190,3,-292,-140,-4584.960,-9094.744,11756.689,-5145.820
24.174347,338,1783,1408,54,-337,-162,-4627.625,-9095.271,11761.931,-5094.463
24.194336,282,1783,1467,-63,-368,-132,-4641.292,-9100.505,11783.366,-5022.641
24.214325,243,1700,1295,-347,-366,-78,-4619.097,-9116.532,11820.672,-4925.436,418,85,554
24.234314,214,1607,1264,-542,-369,-60,-4586.177,-9135.826,11860.755,-4823.027
24.254303,199,1543,1304,-573,-352,-61,-4552.724,-9155.300,11897.993,-4725.079
24.274292,215,1538,1400,-537,-317,-62,-4518.127,-9175.066,11931.408,-4634.827
24.294281,247,1539,1365,-527,-267,-60,-4477.452,-9195.876,11963.159,-4550.443,418,85,554,33011
24.314270,248,1480,1333,-519,-232,-48,-4437.716,-9214.029,11992.457,-4474.902,421,93,556
24.334259,246,1483,1281,-475,-194,-34,-4403.620,-9228.795,12016.794,-4412.434
24.354248,265,1473,1336,-366,-156,-29,-4380.823,-9238.638,12033.972,-4367.484
24.374237,265,1477,1367,-254,-112,-19,-4364.730,-9245.791,12045.368,-4336.936
24.394226,250,1431,1387,-175,-71,-19,-4354.267,-9251.579,12051.008,-4319.407
24.414215,133,1471,1342,-92,-26,-22,-4347.977,-9259.502,12049.975,-4311.641,405,72,565
24.434173,127,1481,1317,-57,10,-58,-4350.289,-9274.395,12038.809,-4308.490
24.454162,179,1542,1330,8,26,-136,-4360.838,-9296.762,12016.391,-4312.202
24.474182,227,1520,1288,72,60,-196,-4376.690,-9321.885,11986.575,-4324.870
24.494171,262,1553,1329,123,93,-212,-4395.029,-9345.114,11953.166,-4348.541
24.514221,236,1550,1398,196,141,-190,-4412.699,-9363.831,11919.119,-4383.697,395,60,574
24.534118,229,1570,1471,189,181,-152,-4417.066,-9383.042,11889.880,-4417.490
24.554138,226,1549,1355,106,207,-125,-4405.997,-9405.989,11865.111,-4446.250
24.574127,236,1538,1293,24,240,-116,-4390.895,-9430.755,11839.236,-4477.590
24.594085,285,1511,1224,47,267,-120,-4380.758,-9454.695,11808.631,-4517.672
24.614074,304,1518,1211,125,290,-125,-4379.529,-9473.497,11772.937,-4572.302,400,72,565
24.634063,305,1577,1205,229,321,-106,-4384.997,-9486.885,11734.289,-4638.179
24.654052,347,1594,1276,293,332,-93,-4398.913,-9496.152,11692.949,-4709.885
24.674041,282,1592,1266,344,320,-90,-4411.411,-9504.933,11653.053,-4778.859
24.694030,260,1605,1167,297,310,-86,-4423.790,-9515.464,11614.635,-4839.597
24.714019,270,1630,1195,286,271,-109,-4442.316,-9526.217,11574.115,-4898.194,399,61,570
24.734008,265,1620,1156,317,253,-126,-4465.908,-9536.873,11531.818,-4955.434
24.753997,296,1660,1122,323,229,-143,-4491.928,-9546.819,11490.903,-5007.535
24.773986,318,1682,1096,309,194,-139,-4520.404,-9552.766,11453.102,-5056.924
24.793975,306,1677,1053,327,156,-117,-4554.001,-9552.142,11420.427,-5101.660,399,61,570,32986
24.813934,317,1679,1075,320,93,-87,-4593.468,-9544.208,11394.297,-5139.413,417,77,569
24.833954,331,1722,1114,330,22,-57,-4639.243,-9528.084,11374.892,-5171.101
24.853943,345,1764,1138,336,-48,-19,-4686.601,-9504.203,11365.491,-5192.970
24.873901,337,1774,1183,283,-128,26,-4728.930,-9474.732,11368.987,-5200.792
24.893921,323,1783,1112,197,-196,80,-4764.818,-9440.101,11385.754,-5194.326
24.913879,329,1783,1168,124,-260,134,-4800.775,-9398.103,11412.206,-5179.304,409,78,554
24.933868,301,1778,1231,109,-322,176,-4835.428,-9350.018,11447.251,-5156.711
24.953857,287,1736,1183,60,-372,216,-4862.277,-9300.445,11491.403,-5122.799
24.973846,219,1708,1075,-33,-397,245,-4881.058,-9251.161,11541.730,-5080.863
24.993835,181,1681,1032,-78,-409,258,-4903.577,-9201.289,11589.212,-5041.509
25.013824,165,1697,1084,-11,-394,240,-4936.947,-9150.901,11627.555,-5012.280,408,89,548
25.033813,151,1719,1224,90,-372,205,-4977.735,-9102.469,11656.318,-4993.286
25.053802,195,1764,1220,145,-319,176,-5012.697,-9059.970,11681.413,-4976.929
25.073791,183,1716,1217,94,-276,161,-5037.702,-9024.168,11703.636,-4964.501
25.093750,141,1648,1189,57,-208,148,-5053.913,-8995.494,11722.621,-4955.263
25.113769,111,1658,1043,48,-148,123,-5064.617,-8975.249,11735.552,-4950.435,404,80,547
25.133758,122,1656,1015,29,-91,79,-5079.423,-8961.834,11738.205,-4953.278
25.153717,173,1675,978,113,-40,24,-5102.183,-8951.747,11729.149,-4969.552
25.173706,238,1699,1072,203,14,-3,-5131.988,-8940.237,11711.064,-5002.128
25.193725,232,1705,1147,290,72,1,-5160.142,-8927.104,11689.928,-5045.864
25.213714,235,1745,1134,308,115,22,-5181.786,-8915.579,11669.799,-5090.457,406,93,533
25.233703,221,1743,1143,255,132,24,-5194.152,-8909.083,11652.352,-5129.048
25.253662,237,1734,1089,176,137,14,-5200.898,-8907.421,11636.564,-5160.845
25.273651,287,1727,1069,146,128,-6,-5209.018,-8907.530,11619.582,-5190.643
25.293640,280,1770,1095,150,123,-20,-5219.867,-8907.097,11601.962,-5219.819,406,93,533,32974
25.313659,306,1764,1099,168,110,-22,-5232.118,-8904.998,11584.948,-5248.845,405,96,532
25.333618,314,1762,1182,163,97,-13,-5241.637,-8901.787,11570.694,-5276.163
25.353607,302,1757,1134,132,97,2,-5246.781,-8900.948,11560.224,-5295.380
25.373596,312,1768,1110,81,56,-19,-5255.510,-8903.976,11552.747,-5297.952
25.393585,360,1771,1061,21,-40,-76,-5274.703,-8912.226,11548.868,-5273.405
25.413574,340,1744,973,-43,-206,-163,-5303.581,-8924.654,11550.598,-5219.357,405,106,527
25.433563,326,1681,861,-107,-336,-224,-5342.771,-8936.459,11552.623,-5154.300
25.453552,118,1688,896,-51,-375,-236,-5389.426,-8940.690,11545.779,-5113.566
25.473541,94,1728,1041,120,-244,-190,-5445.301,-8940.841,11527.487,-5095.345
25.493530,62,1769,1082,226,-203,-196,-5501.677,-8942.569,11504.590,-5083.488
25.513519,67,1776,1141,210,-165,-203,-5549.854,-8949.851,11480.770,-5072.143,398,106,527
25.533508,86,1773,1119,160,-120,-211,-5582.720,-8964.215,11459.226,-5059.411
25.553497,113,1792,1160,68,-70,-206,-5604.513,-8983.110,11439.946,-5045.417
25.573486,139,1799,1116,24,-50,-197,-5617.754,-9003.084,11425.116,-5028.664
25.593475,158,1791,1139,-30,-46,-177,-5624.510,-9021.998,11415.787,-5008.360
25.613433,159,1822,1181,-87,-53,-147,-5624.768,-9039.154,11412.072,-4985.551,392,105,519
25.633423,88,1748,1149,-110,-55,-117,-5616.418,-9056.196,11415.481,-4956.148
25.653412,89,1717,1074,-203,-75,-98,-5606.133,-9073.659,11423.836,-4916.440
25.673401,108,1716,1007,-220,-128,-111,-5604.444,-9088.558,11430.612,-4874.920
25.693390,119,1759,1045,-151,-156,-122,-5618.589,-9097.442,11430.465,-4842.303
25.713379,138,1778,1113,-33,-160,-126,-5642.155,-9101.051,11426.025,-4818.540,383,111,525
25.733429,164,1743,1107,23,-152,-112,-5663.657,-9101.956,11423.177,-4798.315
25.753357,196,1703,1040,21,-145,-80,-5684.968,-9096.846,11423.113,-4782.934
25.773346,162,1681,1025,46,-139,-33,-5709.193,-9084.194,11424.712,-4774.298
25.793335,116,1700,1027,99,-148,7,-5739.722,-9065.018,11426.745,-4769.272,383,111,525,32992
25.813324,120,1722,1048,144,-171,22,-5780.251,-9041.319,11426.094,-4766.870,383,91,532
25.833313,86,1729,1090,211,-193,14,-5827.294,-9014.449,11423.095,-4767.669
25.853271,113,1785,1044,237,-203,19,-5876.346,-8985.979,11420.111,-4768.359
25.873260,114,1773,1073,250,-206,24,-5926.307,-8955.607,11417.083,-4770.915
25.893280,121,1755,1139,261,-203,33,-5974.091,-8924.186,11414.513,-4776.342
25.913269,123,1755,1099,255,-187,53,-6015.791,-8892.671,11414.804,-4782.085,376,103,527
25.933258,113,1747,1061,222,-168,70,-6051.175,-8862.123,11416.803,-4789.374
25.953247,115,1717,1033,197,-143,83,-6082.889,-8832.570,11419.802,-4796.636
25.973205,193,1727,915,182,-139,88,-6115.424,-8801.937,11421.667,-4807.123
25.993194,236,1780,920,226,-126,95,-6152.519,-8765.884,11420.153,-4829.215
26.013183,299,1805,1033,290,-94,134,-6191.931,-8722.140,11416.264,-4867.094,366,106,516
26.033172,272,1813,1120,379,-43,192,-6224.046,-8673.504,11415.281,-4915.116
26.053161,244,1799,1130,338,-2,251,-6243.157,-8624.633,11420.163,-4965.279
26.073150,191,1755,1041,262,33,290,-6248.812,-8580.308,11431.467,-5008.757
26.093139,149,1732,809,187,36,282,-6254.451,-8542.479,11439.095,-5048.804
26.113128,164,1711,729,209,41,222,-6280.784,-8507.088,11431.108,-5093.761,365,117,507
26.133117,102,1775,699,373,38,136,-6330.443,-8472.378,11404.790,-5148.835
26.153106,106,1838,727,528,41,59,-6403.581,-8438.137,11362.514,-5207.755
26.173095,81,1911,777,642,-1,-20,-6491.980,-8405.069,11311.283,-5263.014
26.193084,96,1945,702,694,-34,-79,-6587.118,-8373.765,11256.886,-5311.111
26.213043,111,1948,692,674,-77,-115,-6684.041,-8342.904,11203.618,-5351.067,372,119,498
26.233062,166,1988,660,651,-111,-126,-6777.260,-8311.059,11156.012,-5382.737
26.253021,181,2003,697,605,-149,-110,-6865.121,-8274.732,11115.318,-5411.476
26.273040,176,1992,662,554,-159,-58,-6942.929,-8233.812,11084.140,-5438.506
26.292999,201,2015,735,501,-166,3,-7009.651,-8188.953,11062.852,-5463.935,372,119,498,32980
26.313018,195,2018,786,429,-159,64,-7056.758,-8145.470,11053.524,-5487.124,388,123,485
26.332977,205,2035,799,296,-126,123,-7078.790,-8107.329,11058.018,-5506.144
26.352966,229,1955,716,144,-79,178,-7082.176,-8072.492,11073.520,-5521.796
26.372955,198,1956,628,44,-64,218,-7075.874,-8038.665,11096.357,-5533.368
26.392944,225,1961,512,-1,-73,233,-7071.467,-8003.988,11120.220,-5541.359
26.412933,291,1965,536,15,-109,214,-7082.956,-7963.361,11138.641,-5548.219,372,139,465
26.432922,301,1964,569,118,-165,190,-7107.600,-7916.684,11152.968,-5554.715
26.452911,274,1979,648,167,-208,179,-7138.806,-7866.688,11166.516,-5558.509
26.472900,293,2008,711,184,-246,167,-7172.953,-7817.102,11181.346,-5554.690
26.492889,254,1983,645,166,-270,141,-7201.931,-7772.732,11199.110,-5543.660
26.512878,212,1937,618,96,-276,121,-7229.417,-7733.104,11216.904,-5527.307,385,139,456
26.532867,176,1904,533,77,-274,90,-7257.139,-7699.875,11231.082,-5508.545
26.552856,164,1911,480,80,-260,44,-7290.059,-7673.656,11237.148,-5489.259
26.572815,144,1932,511,118,-237,-20,-7329.342,-7653.461,11231.836,-5476.000
26.592834,130,1962,589,175,-180,-66,-7371.384,-7640.369,11215.899,-5470.511
26.612823,133,2009,697,219,-113,-103,-7408.920,-7636.902,11193.228,-5471.079,380,158,447
26.632782,104,2084,751,189,-34,-130,-7432.797,-7646.318,11168.271,-5476.542
26.652801,67,2097,725,119,88,-140,-7435.111,-7674.219,11142.865,-5486.115
26.672790,113,2064,704,7,181,-172,-7420.638,-7718.178,11117.495,-5495.505
26.692779,104,2033,599,-100,272,-195,-7385.892,-7776.656,11094.969,-5505.389
26.712768,191,2011,507,-203,359,-201,-7344.039,-7841.749,11071.706,-5515.868,382,151,456
26.732757,189,1974,534,-195,361,-216,-7306.137,-7903.741,11044.855,-5531.531
26.752716,205,1971,530,-154,385,-201,-7267.927,-7962.852,11015.382,-5555.808
26.772705,266,1998,559,-113,409,-169,-7232.954,-8015.565,10983.907,-5587.871
26.792694,276,1941,564,-59,408,-135,-7200.739,-8058.470,10954.555,-5625.260,382,151,456,33005
26.812683,318,1949,530,-35,388,-78,-7168.612,-8091.652,10930.832,-5664.672,376,159,443
26.832672,319,1959,551,-20,354,-21,-7138.897,-8113.397,10911.214,-5708.746
26.852661,291,1983,680,24,341,45,-7111.535,-8126.021,10893.224,-5759.076
26.872650,285,1997,685,57,330,83,-7082.548,-8135.397,10879.727,-5806.874
26.892639,282,2020,747,17,302,101,-7049.457,-8144.033,10872.738,-5847.981
26.912628,287,1949,804,-32,276,112,-7010.513,-8155.607,10869.466,-5884.633,386,147,457
26.932617,225,1863,755,-89,284,108,-6961.464,-8173.921,10871.128,-5914.308
26.952667,183,1862,752,-170,299,95,-6908.259,-8200.867,10871.774,-5938.156
26.972564,141,1852,716,-193,309,39,-6858.788,-8236.825,10865.238,-5957.665
26.992553,132,1913,655,-188,318,-42,-6816.388,-8283.706,10846.579,-5975.300
27.012573,108,1841,630,-151,329,-143,-6786.883,-8337.542,10814.775,-5991.634,387,151,461
27.032562,197,1816,600,-97,338,-225,-6774.647,-8391.572,10772.995,-6005.303
27.052551,181,1844,573,18,280,-292,-6776.431,-8440.360,10724.978,-6020.844
27.072540,207,1902,637,84,262,-298,-6790.405,-8481.394,10673.939,-6038.112
27.092498,117,1914,636,154,220,-295,-6808.079,-8518.323,10622.846,-6056.301
27.112487,125,1969,639,163,192,-287,-6830.197,-8551.652,10573.825,-6070.200,389,139,472
27.132476,152,1944,577,163,161,-283,-6854.176,-8581.070,10527.157,-6082.753
27.152465,140,1944,580,172,141,-262,-6878.627,-8606.084,10482.769,-6096.458
27.172454,135,1975,548,181,119,-242,-6904.576,-8626.231,10441.188,-6109.992
27.192444,118,1974,650,185,106,-216,-6930.770,-8642.168,10401.547,-6125.406
27.212433,63,2062,479,205,97,-192,-6938.591,-8666.143,10364.162,-6146.013,389,153,463
27.232422,141,2033,695,67,168,-162,-6949.436,-8686.503,10328.659,-6164.756
27.252411,67,2037,539,121,183,-145,-6942.914,-8713.365,10299.049,-6183.706
27.272400,125,2052,632,24,214,-132,-6935.374,-8742.717,10270.203,-6198.696
27.292389,77,2064,630,4,205,-148,-6921.724,-8776.382,10245.847,-6206.682,389,153,463,32995
27.312347,120,2025,594,-78,195,-153,-6903.962,-8813.693,10227.333,-6204.128,392,148,461
27.332367,100,2027,581,-136,156,-167,-6887.410,-8851.399,10214.075,-6190.672
27.352356,102,2006,576,-170,98,-182,-6873.278,-8887.686,10205.360,-6168.723
27.372345,136,2015,542,-191,49,-184,-6863.530,-8920.052,10201.591,-6139.021
27.392303,141,1981,605,-199,-17,-177,-6858.066,-8945.260,10202.829,-6106.306
27.412323,118,1969,576,-188,-54,-142,-6852.771,-8962.859,10209.752,-6074.791,388,145,448
27.432281,112,1985,651,-171,-77,-94,-6849.695,-8973.154,10218.306,-6048.623
27.452270,80,1998,662,-135,-82,-57,-6845.202,-8978.060,10230.336,-6026.052
27.472259,51,1984,714,-132,-81,-15,-6838.494,-8980.919,10244.272,-6005.698
27.492248,37,1973,703,-144,-73,-2,-6827.871,-8985.556,10260.792,-5982.604
27.512237,51,1952,661,-178,-78,1,-6816.133,-8991.597,10277.616,-5957.982,389,143,470
27.532226,49,1904,629,-178,-73,-9,-6808.282,-8996.447,10293.862,-5931.532
27.552215,80,1905,586,-164,-114,-18,-6808.477,-8995.536,10309.695,-5905.132
27.572204,88,1943,514,-103,-142,-8,-6816.642,-8986.137,10323.622,-5885.659
27.592193,76,1953,624,-25,-149,20,-6834.440,-8967.425,10332.102,-5878.675
27.612182,5,1955,632,80,-138,48,-6854.753,-8942.767,10340.104,-5878.517,372,129,475
27.632171,-56,1968,681,107,-145,77,-6875.383,-8914.378,10347.432,-5884.646
27.652130,-79,1954,635,129,-107,110,-6890.677,-8886.776,10353.952,-5897.022
27.672149,28,1946,711,131,-64,128,-6901.547,-8860.033,10354.427,-5923.659
27.692138,193,1940,748,189,36,154,-6901.836,-8831.152,10355.112,-5965.106
27.712097,224,1948,698,176,99,238,-6884.498,-8796.604,10365.903,-6017.220,375,134,472
27.732116,208,1889,566,121,154,356,-6852.493,-8755.675,10382.999,-6083.605
27.752105,156,1891,557,145,231,456,-6814.562,-8708.862,10396.949,-6168.982
27.772064,87,1928,648,207,311,508,-6775.339,-8662.505,10400.652,-6270.379
27.792083,83,1923,607,269,393,496,-6736.988,-8621.636,10394.890,-6376.682,375,134,472,33007
27.812042,162,1939,606,285,435,449,-6702.927,-8588.610,10379.260,-6481.738,387,146,470
27.832031,336,1987,512,304,436,365,-6674.901,-8561.799,10359.515,-6577.018
27.852020,341,1986,541,280,391,300,-6652.524,-8537.331,10336.977,-6666.352
27.872009,374,2013,565,284,368,262,-6634.871,-8516.401,10315.357,-6743.756
27.891998,317,1991,575,238,312,201,-6617.714,-8503.743,10294.193,-6808.615
27.911987,413,1960,477,181,295,150,-6598.163,-8499.585,10274.452,-6862.388,397,158,465
27.931976,395,1900,504,124,289,114,-6577.516,-8496.467,10251.856,-6919.624
27.951965,359,1893,377,159,308,125,-6561.834,-8486.893,10230.002,-6978.357
27.971954,460,1902,516,205,276,141,-6559.736,-8468.038,10203.475,-7041.783
27.991943,551,1923,513,319,236,130,-6569.438,-8440.067,10175.189,-7106.947
28.011932,498,1997,540,371,183,134,-6585.751,-8406.141,10151.622,-7165.519,418,155,456
28.031921,506,2013,558,358,99,130,-6607.756,-8372.637,10134.074,-7209.194
28.051910,481,1995,396,310,28,86,-6634.042,-8343.610,10122.821,-7234.471
28.071899,466,1940,256,239,-67,30,-6678.974,-8312.323,10113.768,-7241.803
28.091888,387,1976,281,301,-214,-56,-6752.957,-8273.923,10101.100,-7234.845
28.111847,243,2069,425,385,-350,-148,-6850.014,-8234.961,10083.134,-7213.082,418,155,440
28.131836,149,2148,444,417,-439,-258,-6958.912,-8206.767,10060.773,-7172.083
28.151825,245,2135,367,351,-485,-385,-7071.436,-8194.054,10036.755,-7109.940
28.171875,369,2088,269,279,-521,-492,-7185.335,-8187.506,10012.393,-7037.267
28.191803,459,2039,191,246,-553,-514,-7300.755,-8172.799,9991.584,-6964.770
28.211792,422,1997,227,297,-585,-459,-7416.636,-8142.425,9973.770,-6903.171,423,168,444
28.231781,290,2035,334,347,-582,-362,-7526.660,-8103.910,9959.592,-6849.671
28.251770,184,2064,392,350,-561,-303,-7627.388,-8066.943,9948.064,-6798.442
28.271759,128,2075,415,290,-522,-283,-7716.061,-8038.413,9940.296,-6743.311
28.291748,44,2053,353,204,-488,-290,-7791.716,-8022.159,9936.088,-6681.595,423,168,444,32964
28.311737,48,2035,338,105,-448,-313,-7860.358,-8017.008,9931.999,-6613.107,400,169,429
28.331695,88,2063,340,32,-421,-358,-7920.479,-8022.780,9928.199,-6539.671
28.351715,141,2046,329,-27,-388,-379,-7971.839,-8034.238,9926.369,-6465.558
28.371673,117,2032,281,-73,-351,-364,-8011.882,-8048.438,9926.602,-6397.686
28.391693,20,2021,239,-100,-290,-320,-8043.249,-8064.702,9924.634,-6340.646
28.411682,16,2017,321,-87,-206,-287,-8070.708,-8083.276,9916.504,-6294.656,395,181,420
28.431640,8,2066,376,-51,-144,-278,-8091.079,-8106.621,9904.913,-6256.616
28.451660,14,2072,394,-75,-82,-265,-8102.290,-8135.864,9894.478,-6220.558
28.471618,23,2089,393,-125,-37,-258,-8105.123,-8169.918,9886.483,-6184.844
28.491607,26,2048,371,-158,-9,-250,-8104.010,-8205.294,9879.890,-6149.908
28.511596,30,2021,309,-167,-5,-240,-8103.259,-8237.929,9875.025,-6114.984,371,171,417
28.531585,50,2020,350,-164,-28,-224,-8107.881,-8264.050,9871.899,-6078.550
28.551574,31,2067,409,-132,-78,-215,-8120.201,-8281.781,9870.943,-6039.399
28.571563,27,2071,431,-112,-150,-206,-8137.535,-8292.060,9876.840,-5992.137
28.591552,49,2051,425,-127,-227,-193,-8157.935,-8296.621,9889.601,-5936.783
28.611541,11,2038,431,-153,-289,-184,-8181.161,-8295.014,9908.471,-5875.284,359,169,427
28.631530,18,1974,344,-152,-348,-165,-8211.065,-8285.108,9930.471,-5810.040
28.651519,33,1954,363,-124,-410,-150,-8249.006,-8266.400,9952.621,-5744.675
28.671508,10,1969,297,-66,-456,-137,-8294.549,-8239.176,9972.848,-5682.796
28.691497,-102,2013,402,-12,-476,-116,-8344.234,-8207.185,9988.669,-5628.302
28.711486,-185,2077,376,43,-454,-107,-8394.717,-8175.698,10001.271,-5576.442,356,165,419
28.731475,-203,2082,453,45,-440,-113,-8444.599,-8147.780,10011.512,-5523.358
28.751465,-211,2123,479,36,-415,-135,-8491.502,-8126.468,10018.381,-5470.136
28.771454,-301,2133,562,23,-386,-169,-8531.477,-8115.501,10021.293,-5418.639
28.791443,-261,2082,418,-10,-296,-194,-8564.068,-8116.486,10024.070,-5360.302,356,165,419,32986
28.811401,-158,1987,271,-99,-309,-246,-8590.121,-8123.305,10030.312,-5296.225,346,153,414
28.831421,-116,1945,175,-140,-270,-244,-8613.003,-8127.655,10035.928,-5241.468
28.851379,-187,1921,204,-91,-235,-185,-8635.215,-8125.689,10034.949,-5209.747
28.871368,-202,2025,335,22,-155,-115,-8659.503,-8117.725,10026.364,-5198.365
28.891357,-175,2041,407,111,-89,-61,-8678.370,-8108.512,10016.966,-5199.398
28.911346,-159,2097,408,94,-45,-8,-8683.356,-8100.061,10015.714,-5206.654,340,157,408
28.931335,-94,2044,420,19,13,58,-8674.251,-8092.705,10023.161,-5218.923
28.951324,-102,2052,420,-36,30,112,-8654.528,-8083.589,10039.769,-5233.851
28.971313,-105,2033,388,-76,61,174,-8624.523,-8073.399,10063.848,-5252.831
28.991302,-118,2002,321,-133,77,227,-8587.418,-8061.847,10093.592,-5274.248
29.011291,-45,2025,404,-147,90,264,-8549.953,-8046.765,10124.579,-5298.698,331,160,416
29.031280,-66,2062,407,-132,85,285,-8510.882,-8028.357,10158.725,-5324.105
29.051269,-35,2057,456,-150,77,314,-8468.547,-8007.844,10197.343,-5348.622
29.071258,-42,2071,434,-169,69,333,-8422.539,-7987.746,10236.707,-5376.057
29.091247,-78,2017,491,-174,107,348,-8370.374,-7971.149,10273.030,-5412.754
29.111236,-137,1996,291,-175,191,361,-8306.303,-7966.119,10309.192,-5449.978,346,158,414
29.131225,-97,1941,296,-238,252,331,-8249.240,-7968.245,10330.087,-5493.800
29.151184,-74,2008,285,-106,296,257,-8205.056,-7975.505,10330.178,-5548.984
29.171173,-24,2035,497,17,372,196,-8170.452,-7987.838,10309.625,-5620.072
29.191192,7,2033,503,115,459,152,-8126.747,-8010.853,10283.859,-5697.357
29.211151,16,2014,430,64,555,146,-8067.819,-8046.104,10254.822,-5783.128,346,153,414
29.231140,50,1991,421,24,670,146,-7999.338,-8089.807,10221.018,-5876.379
29.251129,47,2009,417,20,743,143,-7923.068,-8140.892,10181.395,-5977.080
29.271118,44,2033,418,6,819,128,-7845.833,-8196.566,10137.003,-6077.483
29.291107,88,2032,431,6,833,99,-7768.574,-8256.795,10089.926,-6172.798,346,153,414,32968
29.311096,40,2020,456,-11,822,58,-7693.649,-8320.668,10041.286,-6259.573,356,155,433
29.331085,97,2064,435,-41,793,13,-7625.075,-8387.340,9992.147,-6332.708
29.351074,142,2090,476,-51,714,-51,-7560.153,-8455.302,9944.714,-6394.532
29.371063,130,2087,545,-84,666,-86,-7496.397,-8524.188,9901.854,-6444.452
29.391113,97,2082,537,-137,608,-116,-7434.207,-8592.979,9863.688,-6483.544
29.411041,105,2056,520,-171,570,-112,-7373.219,-8659.303,9830.884,-6514.695,381,154,427
29.431030,120,2033,475,-197,511,-115,-7312.685,-8722.692,9803.056,-6540.244
29.451019,111,2009,481,-216,486,-101,-7253.867,-8782.024,9778.131,-6563.614
29.471008,66,2012,462,-210,465,-82,-7192.195,-8838.708,9754.138,-6591.039
29.490966,-57,1979,472,-204,500,-52,-7127.884,-8897.898,9724.094,-6625.565
29.510986,-41,1966,480,-165,559,-74,-7064.858,-8964.496,9681.506,-6665.544,382,160,444
29.530944,-4,1992,497,-154,629,-132,-6996.943,-9042.547,9628.080,-6708.997
29.550933,22,2016,503,-138,709,-183,-6922.717,-9129.988,9562.161,-6761.642
29.570923,43,2016,532,-139,823,-210,-6837.449,-9226.550,9487.973,-6821.573
29.590912,45,2061,601,-158,922,-212,-6741.132,-9329.306,9407.536,-6888.750
29.610901,157,2030,595,-160,988,-211,-6635.485,-9435.610,9326.438,-6956.479,398,154,453
29.630890,163,2012,562,-212,1027,-194,-6517.476,-9542.794,9247.645,-7026.669
29.650879,160,1952,380,-259,1063,-145,-6393.353,-9645.965,9173.610,-7096.528
29.670868,146,1961,367,-245,1051,-112,-6276.277,-9739.331,9096.869,-7171.902
29.690857,228,1948,335,-149,1029,-105,-6177.195,-9818.978,9014.445,-7252.940
29.710846,323,1966,326,-30,950,-120,-6102.854,-9882.128,8929.919,-7334.213,393,152,460
29.730835,358,1977,367,113,789,-147,-6067.164,-9922.288,8844.908,-7412.203
29.750824,334,2027,553,284,584,-190,-6063.679,-9942.321,8766.344,-7481.222
29.770813,389,2057,640,340,412,-188,-6073.875,-9954.728,8707.322,-7525.250
29.790802,385,2065,557,214,189,-191,-6091.968,-9966.121,8680.004,-7527.106,393,152,460,33005
29.810760,369,2054,502,22,-56,-180,-6117.406,-9970.455,8683.486,-7496.657,415,149,483
29.830780,215,2013,371,-105,-259,-122,-6136.733,-9968.198,8713.916,-7448.397
29.850769,153,1939,236,-205,-306,-10,-6148.551,-9958.874,8753.144,-7405.000
29.870758,97,1953,330,-162,-315,56,-6166.098,-9934.949,8785.153,-7384.614
29.890716,125,1994,530,44,-210,110,-6179.289,-9903.895,8804.452,-7392.314
29.910736,43,2033,568,107,-103,163,-6172.430,-9877.293,8817.080,-7418.539,421,151,479
29.930725,110,2035,576,102,88,209,-6151.152,-9862.325,8822.336,-7449.811
29.950683,176,2007,579,41,143,174,-6123.345,-9857.064,8821.853,-7480.193
29.970672,211,2047,437,18,190,135,-6094.192,-9858.787,8820.132,-7503.721
29.990661,303,2011,500,-27,162,92,-6076.845,-9859.502,8819.209,-7517.922
30.010650,346,2009,569,-7,63,48,-6071.989,-9856.169,8824.753,-7519.710,406,153,458
30.030639,306,2027,586,-32,-43,31,-6073.628,-9851.221,8840.865,-7505.932
30.050628,288,2024,602,-88,-146,23,-6083.794,-9846.029,8868.991,-7471.250
30.070617,260,2012,567,-170,-278,-11,-6101.809,-9843.796,8908.488,-7412.278
