;Title, http://www.gcdataconcepts.com, HAM-IMU, MPU-9250
;Version, 1191, Build date, Nov 15 2016,  SN:CCDC30161C28AA2
;Start_time, 2018-06-15, 13:44:37.269
;Temperature, -999.00, deg C,  Vbat, 4194, mv
;MPU SR, 200,Hz,  Accel sens, 2048,counts/g, Gyro sens, 16,counts/dps,  Mag SR, 10,Hz,  Mag sens, 1666,counts/mT
;Deadband, 0, counts
;DeadbandTimeout, 5,sec
;Time, Ax, Ay, Az, Gx, Gy, Gz, Qw, Qx, Qy, Qz, Mx, My, Mz, T
0.008087,-1,28,-2104,-3,-12,-8,16376.806,-334.219,-93.280,-339.520,479,-1143,166,32267
0.028167,-9,32,-2097,-3,-12,-7,16376.759,-335.378,-93.384,-340.582
0.048065,64,64,-2258,-1,-11,-7,16376.708,-336.590,-93.449,-341.814,479,-1143,166,32310
0.068054,6,21,-2096,-1,-11,-8,16376.658,-337.845,-93.653,-342.914,484,-1121,150
0.088043,-4,41,-2113,-3,-12,-7,16376.609,-339.122,-93.861,-343.930
0.108032,4,36,-2100,-3,-12,-7,16376.555,-340.423,-93.955,-345.211
0.128021,6,46,-2117,-3,-12,-9,16376.503,-341.628,-94.130,-346.446
0.148010,-11,29,-2097,-1,-11,-10,16376.445,-342.989,-94.303,-347.769
0.167999,-23,41,-2078,-4,-13,-6,16376.400,-344.075,-94.393,-348.785,496,-1089,145
0.187988,-4,31,-2129,-1,-10,-5,16376.350,-345.237,-94.473,-349.975
0.207977,-14,30,-2122,-1,-14,-8,16376.293,-346.557,-94.759,-351.251
0.227935,5,49,-2104,-3,-12,-8,16376.240,-347.704,-95.067,-352.526
0.247955,-6,27,-2078,-1,-12,-10,16376.184,-348.921,-95.338,-353.847
0.267913,10,14,-2110,-3,-13,-9,16376.133,-350.159,-95.367,-354.952,508,-1097,155
0.287902,-3,46,-2084,-3,-13,-8,16376.079,-351.348,-95.674,-356.184
0.307891,0,44,-2102,-3,-12,-9,16376.029,-352.348,-95.873,-357.462
0.327880,-10,25,-2123,-3,-11,-8,16375.976,-353.374,-96.222,-358.781
0.347900,2,31,-2124,-3,-11,-10,16375.928,-354.448,-96.304,-359.888
0.367858,2,42,-2104,-1,-13,-7,16375.874,-355.649,-96.481,-361.123,496,-1101,152
0.387847,-11,43,-2091,-1,-12,-8,16375.823,-356.819,-96.390,-362.277
0.407836,0,26,-2076,0,-12,-9,16375.768,-357.896,-96.663,-363.640
0.427826,-20,48,-2141,-3,-11,-8,16375.713,-359.139,-96.761,-364.834
0.447815,-2,16,-2106,-1,-14,-9,16375.657,-360.586,-96.944,-365.895
0.467804,-6,24,-2113,-4,-14,-7,16375.602,-361.880,-97.013,-367.045,507,-1095,146
0.487793,-6,31,-2104,-3,-14,-9,16375.549,-363.038,-97.274,-368.191
0.507782,-5,21,-2117,-3,-13,-8,16375.491,-364.252,-97.451,-369.558
0.527832,6,37,-2123,-4,-11,-9,16375.438,-365.209,-97.659,-370.878
0.547729,-4,31,-2103,-3,-11,-8,16375.377,-366.656,-98.042,-372.025,507,-1095,146,32294
0.567718,-14,25,-2086,-4,-14,-8,16375.322,-367.863,-98.176,-373.218,496,-1094,152
0.587738,-3,25,-2096,-3,-12,-6,16375.269,-369.030,-98.441,-374.319
0.607696,0,27,-2117,-5,-12,-8,16375.219,-370.264,-98.680,-375.248
0.627685,6,33,-2087,-3,-12,-8,16375.166,-371.497,-98.947,-376.264
0.647674,-7,25,-2103,-4,-13,-8,16375.104,-372.852,-98.963,-377.633
0.667663,6,37,-2104,-3,-14,-10,16375.045,-374.031,-99.034,-379.002,504,-1091,151
0.687652,8,31,-2074,-3,-11,-9,16374.993,-374.981,-99.253,-380.237
0.707641,-8,29,-2100,-3,-11,-8,16374.934,-376.096,-99.514,-381.602
0.727630,-18,42,-2090,-4,-11,-8,16374.874,-377.232,-99.703,-383.011
0.747619,13,33,-2080,-1,-12,-9,16374.820,-378.274,-99.947,-384.203
0.767608,-5,39,-2129,-3,-11,-7,16374.763,-379.496,-100.299,-385.348,507,-1098,144
0.787597,-3,36,-2108,-3,-12,-7,16374.708,-380.634,-100.504,-386.497
0.807586,16,25,-2094,-1,-12,-7,16374.646,-381.811,-100.739,-387.908
0.827545,-17,50,-2115,-3,-12,-8,16374.592,-382.976,-101.055,-388.965
0.847534,-2,27,-2105,-4,-13,-9,16374.533,-384.076,-101.023,-390.379
0.867553,-13,32,-2110,-3,-12,-7,16374.472,-385.374,-101.143,-391.616,506,-1097,141
0.887512,13,25,-2081,-1,-12,-8,16374.412,-386.566,-101.295,-392.897
0.907501,-1,39,-2080,-4,-12,-7,16374.347,-387.953,-101.624,-394.174
0.927520,-1,15,-2132,-4,-13,-9,16374.290,-389.015,-101.889,-395.410
0.947479,-14,32,-2063,-3,-11,-8,16374.227,-390.334,-102.021,-396.688
0.967468,-20,26,-2105,-3,-12,-7,16374.175,-391.463,-102.305,-397.662,512,-1103,149
0.987457,1,37,-2097,-3,-11,-6,16374.117,-392.450,-102.347,-399.032
1.007446,3,29,-2109,-1,-12,-9,16374.067,-393.543,-102.409,-400.007
1.027435,17,25,-2107,-3,-11,-9,16374.006,-394.641,-102.704,-401.329
1.047424,-21,22,-2093,-1,-12,-8,16373.950,-395.787,-102.812,-402.477
1.067413,-8,25,-2085,-4,-10,-6,16373.894,-396.792,-103.011,-403.710,513,-1085,145,32330
1.087402,-1,20,-2088,-4,-12,-8,16373.833,-397.923,-103.315,-404.985
1.107391,4,39,-2113,-3,-12,-9,16373.774,-398.930,-103.674,-406.302
1.127380,-17,38,-2076,-4,-10,-9,16373.712,-399.990,-104.088,-407.622
1.147369,-11,27,-2095,-3,-13,-8,16373.656,-401.105,-104.320,-408.727
1.167327,5,30,-2086,-1,-10,-7,16373.602,-402.229,-104.559,-409.745,506,-1089,148
1.187347,-11,32,-2093,-1,-12,-7,16373.545,-403.294,-104.654,-410.938
1.207305,-11,37,-2092,-3,-12,-7,16373.488,-404.392,-104.893,-412.044
1.227294,-15,53,-2108,-1,-12,-9,16373.433,-405.354,-104.917,-413.284
1.247345,-1,25,-2097,-1,-11,-8,16373.379,-406.307,-105.149,-414.432
1.267273,-11,32,-2109,-4,-11,-8,16373.327,-407.201,-105.302,-415.578,504,-1086,149
1.287262,-4,35,-2090,-3,-11,-8,16373.265,-408.198,-105.475,-416.990
1.307251,-7,24,-2094,-1,-12,-9,16373.206,-409.172,-105.536,-418.316
1.327240,5,18,-2096,-3,-11,-9,16373.146,-410.301,-105.786,-419.508
1.347229,-2,44,-2086,-4,-12,-7,16373.092,-411.206,-105.897,-420.702
1.367218,-2,20,-2097,-1,-10,-9,16373.025,-412.426,-106.089,-422.072,507,-1095,151
1.387176,-17,29,-2085,-3,-12,-8,16372.965,-413.439,-106.158,-423.396
1.407165,1,27,-2100,-1,-11,-9,16372.901,-414.513,-106.241,-424.769
1.427185,-15,31,-2130,-3,-12,-9,16372.841,-415.552,-106.396,-426.049
1.447143,-17,24,-2098,-1,-12,-8,16372.784,-416.697,-106.568,-427.070
1.467163,-21,33,-2083,-3,-12,-8,16372.725,-417.729,-106.582,-428.310,507,-1091,146
1.487121,-11,52,-2092,-1,-12,-9,16372.662,-418.853,-106.672,-429.592
1.507110,-14,22,-2100,-3,-12,-9,16372.610,-419.685,-106.788,-430.742
1.527099,-5,44,-2103,-1,-11,-9,16372.552,-420.666,-106.798,-431.980
1.547088,-18,33,-2102,-1,-14,-8,16372.483,-421.883,-107.019,-433.350
1.567077,-20,31,-2106,-4,-11,-10,16372.420,-423.078,-107.141,-434.546,503,-1094,150,32325
1.587066,-7,33,-2112,-3,-13,-7,16372.362,-424.121,-107.208,-435.697
1.607055,-18,47,-2092,-1,-11,-8,16372.305,-425.072,-107.278,-436.892
1.627044,3,19,-2091,-3,-11,-8,16372.247,-426.093,-107.312,-438.048
1.647033,-9,33,-2123,-1,-11,-4,16372.192,-427.105,-107.131,-439.162
1.667022,-13,37,-2083,-1,-13,-6,16372.133,-428.024,-107.182,-440.447,506,-1092,152
1.687011,-6,34,-2111,-1,-11,-10,16372.075,-429.130,-107.348,-441.508
1.707000,0,39,-2073,-4,-13,-7,16372.012,-430.304,-107.520,-442.660
1.726989,-33,37,-2109,-1,-12,-6,16371.952,-431.149,-107.670,-444.027
1.746948,1,52,-2102,-1,-11,-8,16371.886,-432.195,-107.918,-445.353
1.766967,-10,47,-2110,-4,-13,-9,16371.825,-433.133,-108.128,-446.635,508,-1087,136
1.786926,-20,22,-2092,-1,-11,-9,16371.761,-434.104,-108.313,-448.001
1.806915,-24,40,-2094,-3,-12,-10,16371.701,-435.107,-108.267,-449.241
1.826904,9,26,-2112,-1,-13,-8,16371.645,-435.959,-108.507,-450.389
1.846893,-15,37,-2107,-3,-11,-8,16371.588,-436.832,-108.721,-451.538
1.866882,-3,27,-2080,-3,-11,-7,16371.520,-437.952,-108.967,-452.859,504,-1095,154
1.886871,-8,38,-2082,-4,-12,-10,16371.454,-439.077,-108.885,-454.190
1.906860,8,35,-2099,-1,-13,-8,16371.392,-440.110,-108.902,-455.431
1.926849,-24,40,-2081,-3,-12,-8,16371.333,-441.055,-109.071,-456.581
1.946838,-2,17,-2069,-1,-10,-8,16371.271,-441.972,-109.101,-457.909
1.966827,-11,37,-2097,-1,-11,-8,16371.214,-442.783,-109.100,-459.149,501,-1097,148
1.986816,-20,26,-2100,-3,-10,-9,16371.154,-443.631,-109.278,-460.428
2.006805,3,27,-2063,-4,-10,-9,16371.089,-444.643,-109.429,-461.753
2.026794,-11,52,-2141,-3,-13,-9,16371.023,-445.773,-109.417,-462.995
2.046753,-8,40,-2109,-3,-13,-8,16370.954,-446.912,-109.434,-464.325
2.066772,9,25,-2106,-3,-12,-8,16370.888,-447.903,-109.657,-465.648,503,-1092,143,32320
2.086731,-20,6,-2093,-3,-13,-8,16370.821,-448.898,-109.693,-467.018
2.106720,-9,41,-2097,-1,-12,-9,16370.755,-449.901,-109.877,-468.339
2.126709,-4,30,-2081,-4,-13,-9,16370.688,-451.047,-109.843,-469.582
2.146698,-6,39,-2093,-1,-12,-7,16370.627,-452.019,-109.782,-470.780
2.166687,-5,45,-2103,-1,-12,-7,16370.563,-453.083,-109.786,-471.980,503,-1094,159
2.186676,-2,35,-2102,-3,-11,-5,16370.501,-454.000,-109.792,-473.264
2.206665,0,23,-2088,-1,-12,-10,16370.438,-455.012,-109.905,-474.416
2.226654,0,36,-2104,-1,-12,-7,16370.371,-456.024,-110.014,-475.739
2.246643,-18,18,-2098,-3,-11,-8,16370.322,-456.743,-109.946,-476.761
2.266601,2,32,-2091,-1,-9,-6,16370.256,-457.700,-110.135,-478.045,508,-1092,141
2.286621,-17,31,-2094,-1,-11,-8,16370.197,-458.636,-110.310,-479.150
2.306610,2,28,-2107,-1,-12,-8,16370.136,-459.540,-110.350,-480.349
2.326568,0,19,-2099,-3,-13,-8,16370.070,-460.540,-110.588,-481.581
2.346588,-5,33,-2119,-6,-11,-7,16370.006,-461.470,-110.654,-482.860
2.366546,-16,32,-2088,-1,-13,-8,16369.942,-462.523,-110.846,-483.970,509,-1088,139
2.386566,-11,49,-2136,-1,-13,-8,16369.871,-463.675,-110.726,-485.301
2.406524,1,28,-2121,-1,-12,-7,16369.807,-464.585,-110.708,-486.588
2.426513,-10,41,-2110,-3,-13,-8,16369.735,-465.715,-110.985,-487.867
2.446502,4,54,-2112,-3,-13,-8,16369.668,-466.717,-111.432,-489.053
2.466552,-20,29,-2118,-4,-13,-7,16369.595,-467.778,-111.653,-490.422,498,-1082,136
2.486480,-4,48,-2096,-1,-13,-8,16369.541,-468.563,-111.601,-491.490
2.506469,-1,18,-2098,-1,-11,-8,16369.473,-469.566,-111.648,-492.774
2.526458,-6,36,-2109,-4,-12,-8,16369.409,-470.523,-111.623,-494.016
2.546447,-10,23,-2092,-1,-12,-8,16369.345,-471.401,-111.767,-495.255
2.566436,-6,35,-2107,-3,-12,-8,16369.285,-472.305,-111.849,-496.361,502,-1086,128,32341
2.586395,-3,25,-2090,-4,-12,-8,16369.222,-473.164,-111.912,-497.602
2.606414,-6,32,-2111,-1,-11,-7,16369.164,-474.088,-112.092,-498.577
2.626373,-7,14,-2132,-1,-11,-7,16369.095,-475.075,-112.082,-499.906
2.646362,0,37,-2104,-3,-13,-8,16369.034,-475.845,-112.036,-501.189
2.666351,3,31,-2085,-3,-12,-8,16368.968,-476.873,-112.190,-502.341,501,-1068,120
2.686340,12,44,-2066,-3,-11,-8,16368.906,-477.764,-112.278,-503.492
2.706329,-9,52,-2088,-3,-12,-9,16368.836,-478.694,-112.549,-504.814
2.726318,-8,35,-2087,-4,-12,-9,16368.774,-479.440,-112.755,-506.050
2.746307,5,32,-2098,-1,-10,-9,16368.715,-480.244,-112.929,-507.160
2.766296,-3,41,-2095,-3,-10,-6,16368.659,-481.182,-113.121,-508.050,481,-1063,106
2.786285,17,36,-2111,-1,-12,-7,16368.593,-482.048,-113.451,-509.284
2.806274,-8,30,-2111,-3,-13,-8,16368.540,-482.882,-113.526,-510.173
2.826263,3,36,-2088,-1,-11,-5,16368.475,-483.806,-113.727,-511.324
2.846221,0,38,-2100,-3,-13,-8,16368.416,-484.566,-114.038,-512.425
2.866241,4,30,-2113,-3,-12,-8,16368.356,-485.443,-114.377,-513.440,462,-1065,101
2.886200,-13,23,-2088,-4,-11,-6,16368.290,-486.450,-114.597,-514.546
2.906189,-9,34,-2093,-4,-13,-6,16368.224,-487.311,-114.781,-515.784
2.926208,2,7,-2051,-3,-12,-8,16368.157,-488.196,-115.048,-517.021
2.946167,-6,26,-2115,-3,-12,-9,16368.100,-489.049,-115.076,-517.996
2.966156,6,30,-2093,-3,-11,-7,16368.032,-490.110,-115.005,-519.151,369,-1091,100
2.986145,-1,30,-2097,-3,-12,-8,16367.962,-490.950,-115.149,-520.560
3.006134,-26,47,-2095,-4,-9,-9,16367.884,-492.033,-115.122,-521.978
3.026123,-7,42,-2122,0,-13,-10,16367.809,-492.930,-115.171,-523.486
3.046112,-24,30,-2108,-1,-12,-10,16367.737,-493.911,-115.348,-524.768
3.066101,2,23,-2062,-3,-11,-8,16367.666,-494.796,-115.505,-526.098,278,-1298,213,32369
3.086090,-17,44,-2082,-3,-13,-7,16367.594,-495.801,-115.626,-527.380
3.106079,-2,35,-2121,-1,-12,-10,16367.533,-496.600,-115.554,-528.535
3.126068,-10,31,-2084,-3,-11,-6,16367.472,-497.384,-115.697,-529.640
3.146057,-5,11,-2138,-4,-11,-6,16367.404,-498.255,-115.709,-530.924
3.166046,-24,15,-2071,-1,-13,-8,16367.330,-499.232,-115.907,-532.244,377,-1368,271
3.186035,-21,31,-2103,-5,-12,-8,16367.268,-499.856,-116.119,-533.523
3.205993,-13,24,-2097,-1,-10,-7,16367.193,-500.700,-116.370,-534.976
3.225982,-13,34,-2091,-1,-10,-9,16367.126,-501.629,-116.500,-536.126
3.245971,-4,46,-2127,-5,-13,-8,16367.061,-502.415,-116.740,-537.319
3.265960,-9,45,-2118,-4,-11,-9,16367.000,-503.240,-116.838,-538.388,421,-1346,267
3.285949,0,29,-2090,-1,-11,-9,16366.935,-503.960,-116.862,-539.677
3.305938,-14,62,-2092,-3,-12,-9,16366.873,-504.652,-117.086,-540.865
3.325927,-6,47,-2111,-5,-10,-8,16366.801,-505.681,-117.324,-542.019
3.345916,-2,36,-2086,-3,-12,-9,16366.734,-506.600,-117.375,-543.174
3.365905,-7,12,-2074,-3,-12,-9,16366.661,-507.599,-117.512,-544.409,429,-1340,268
3.385894,4,38,-2115,-3,-13,-8,16366.575,-508.621,-117.539,-546.039
3.405883,-9,17,-2093,-3,-12,-11,16366.488,-509.654,-117.827,-547.621
3.425872,5,36,-2119,-5,-12,-11,16366.405,-510.679,-117.835,-549.127
3.445861,-24,23,-2102,-1,-14,-10,16366.319,-511.784,-117.969,-550.628
3.465820,3,23,-2100,-1,-14,-10,16366.250,-512.610,-118.245,-551.864,435,-1339,269
3.485809,-3,25,-2085,-1,-12,-8,16366.183,-513.344,-118.241,-553.151
3.505798,-4,28,-2098,-1,-12,-8,16366.107,-514.190,-118.270,-554.616
3.525787,-14,37,-2090,-3,-11,-9,16366.049,-514.811,-118.381,-555.723
3.545776,-39,32,-2125,-1,-11,-7,16365.988,-515.540,-118.449,-556.838
3.565765,-22,44,-2102,-3,-14,-7,16365.925,-516.351,-118.595,-557.904,437,-1350,266,32378
3.585754,-17,47,-2090,-1,-11,-6,16365.863,-517.090,-118.653,-559.013
3.605743,-3,16,-2104,-1,-12,-7,16365.796,-517.881,-118.679,-560.257
3.625732,9,18,-2096,-1,-12,-10,16365.728,-518.705,-118.520,-561.495
3.645721,-10,9,-2093,-1,-13,-8,16365.652,-519.600,-118.688,-562.860
3.665710,-2,35,-2082,-3,-12,-9,16365.572,-520.477,-118.730,-564.357,434,-1350,266
3.685760,-5,25,-2122,-3,-12,-10,16365.501,-521.299,-118.984,-565.590
3.705688,-16,50,-2109,-3,-12,-8,16365.428,-522.233,-119.150,-566.831
3.725647,-3,38,-2091,-1,-12,-8,16365.353,-523.112,-119.405,-568.116
3.745666,1,38,-2115,-4,-13,-9,16365.293,-523.852,-119.508,-569.140
3.765625,-7,34,-2076,-1,-12,-6,16365.238,-524.683,-119.552,-569.946,444,-1352,254
3.785614,-16,19,-2099,-1,-11,-5,16365.173,-525.455,-119.516,-571.101
3.805633,-13,37,-2108,-3,-13,-8,16365.096,-526.225,-119.454,-572.605
3.825592,-11,24,-2098,-1,-12,-9,16365.024,-526.829,-119.683,-574.058
3.845581,-5,24,-2093,-3,-9,-11,16364.954,-527.588,-119.736,-575.344
3.865570,-10,41,-2099,-1,-12,-8,16364.874,-528.476,-119.722,-576.807,441,-1345,259
3.885559,-11,31,-2115,-1,-12,-10,16364.804,-529.145,-120.002,-578.129
3.905548,2,47,-2092,-3,-11,-7,16364.736,-529.969,-120.045,-579.284
3.925537,13,41,-2121,-3,-10,-6,16364.667,-530.724,-120.108,-580.527
3.945526,-18,39,-2094,-4,-10,-6,16364.596,-531.490,-120.185,-581.808
3.965515,-14,26,-2110,-1,-13,-9,16364.528,-532.430,-120.309,-582.832,439,-1340,261
3.985504,-19,39,-2072,-3,-11,-8,16364.447,-533.446,-120.409,-584.160
4.005493,-14,22,-2078,-3,-14,-9,16364.372,-534.406,-120.746,-585.311
4.025482,-23,32,-2090,-3,-13,-8,16364.300,-535.297,-120.772,-586.508
4.045440,-1,28,-2104,-3,-12,-9,16364.226,-536.132,-120.829,-587.796
4.065429,-17,16,-2092,-3,-13,-7,16364.155,-537.106,-120.981,-588.862,434,-1359,263,32394
4.085449,-11,33,-2063,-4,-13,-6,16364.084,-538.012,-121.062,-589.970
4.105407,-1,32,-2085,-3,-10,-7,16364.012,-538.604,-121.192,-591.423
4.125396,-1,32,-2130,-4,-10,-8,16363.932,-539.592,-121.262,-592.712
4.145385,-14,32,-2082,-1,-12,-9,16363.855,-540.555,-121.253,-593.957
4.165374,5,34,-2095,-1,-13,-7,16363.792,-541.388,-121.269,-594.938,441,-1350,266
4.185363,-18,36,-2119,-3,-11,-6,16363.721,-542.233,-121.404,-596.089
4.205352,-8,19,-2080,-3,-12,-7,16363.655,-542.876,-121.494,-597.289
4.225341,-7,25,-2098,-1,-10,-8,16363.583,-543.798,-121.309,-598.450
4.245330,-1,28,-2084,0,-13,-8,16363.512,-544.554,-121.450,-599.690
4.265319,3,14,-2079,-4,-11,-8,16363.438,-545.327,-121.606,-600.969,437,-1352,275
4.285308,-13,36,-2110,-4,-11,-8,16363.354,-546.287,-121.643,-602.383
4.305267,-14,55,-2091,-1,-13,-9,16363.285,-546.888,-121.659,-603.711
4.325256,-10,58,-2105,-1,-11,-8,16363.199,-547.868,-121.942,-605.080
4.345245,14,33,-2094,-3,-11,-8,16363.138,-548.568,-121.846,-606.112
4.365234,1,29,-2116,0,-12,-7,16363.071,-549.430,-121.950,-607.134,431,-1341,262
4.385223,-1,16,-2067,-3,-13,-6,16362.995,-550.263,-121.985,-608.417
4.405212,-22,21,-2138,-1,-12,-8,16362.925,-551.131,-122.046,-609.482
4.425201,-1,40,-2084,-4,-12,-6,16362.862,-551.749,-122.177,-610.588
4.445190,-4,47,-2102,-3,-13,-6,16362.783,-552.700,-122.369,-611.826
4.465179,-16,31,-2087,-4,-12,-9,16362.706,-553.472,-122.421,-613.158,435,-1346,267
4.485168,-10,14,-2130,-1,-11,-9,16362.638,-554.026,-122.571,-614.439
4.505157,-11,28,-2079,-4,-10,-8,16362.553,-554.885,-122.556,-615.939
4.525146,0,58,-2125,-4,-13,-8,16362.476,-555.642,-122.676,-617.263
4.545135,4,27,-2093,-4,-13,-8,16362.394,-556.562,-122.861,-618.594
4.565124,-1,45,-2108,-1,-13,-9,16362.326,-557.334,-123.002,-619.655,439,-1355,259,32388
4.585083,4,45,-2093,-3,-11,-5,16362.257,-557.923,-123.126,-620.936
4.605102,-4,38,-2113,-1,-10,-9,16362.185,-558.799,-123.079,-622.050
4.625061,16,26,-2119,-1,-13,-9,16362.106,-559.592,-123.208,-623.375
4.645050,-9,32,-2074,-1,-10,-8,16362.030,-560.421,-123.300,-624.614
4.665039,2,19,-2070,-3,-12,-8,16361.945,-561.379,-123.445,-625.940,449,-1355,266
4.685028,-13,23,-2096,-3,-13,-9,16361.871,-562.145,-123.517,-627.178
4.705017,-8,27,-2091,-1,-12,-7,16361.801,-562.917,-123.406,-628.336
4.725006,-1,36,-2094,-1,-10,-8,16361.726,-563.691,-123.438,-629.579
4.744995,3,25,-2122,-1,-12,-8,16361.659,-564.358,-123.474,-630.732
4.764984,-3,39,-2110,-1,-13,-7,16361.578,-565.201,-123.662,-632.016,435,-1346,253
4.784973,5,21,-2094,-4,-13,-9,16361.503,-565.935,-123.733,-633.301
4.804962,2,36,-2071,-4,-10,-8,16361.432,-566.581,-123.468,-634.592
4.824951,-1,37,-2105,0,-11,-8,16361.361,-567.171,-123.444,-635.924
4.844940,-8,40,-2115,-1,-10,-8,16361.288,-567.912,-123.525,-637.119
4.864929,-5,35,-2104,-3,-12,-8,16361.223,-568.455,-123.670,-638.271,439,-1352,254
4.884918,0,28,-2110,-3,-10,-9,16361.144,-569.104,-123.843,-639.684
4.904937,-5,21,-2080,-3,-13,-9,16361.067,-569.872,-123.717,-640.975
4.924896,-10,28,-2113,-1,-12,-8,16360.988,-570.600,-123.800,-642.345
4.944885,-20,34,-2117,-4,-12,-7,16360.911,-571.412,-124.023,-643.539
4.964843,-9,38,-2086,-4,-11,-7,16360.833,-572.084,-124.317,-644.863,437,-1357,268
4.984832,-5,27,-2100,-3,-11,-9,16360.765,-572.730,-124.203,-646.023
5.004821,-8,21,-2099,-1,-12,-6,16360.690,-573.462,-124.283,-647.265
5.024810,2,23,-2092,-3,-13,-7,16360.617,-574.012,-124.497,-648.585
5.044799,-5,32,-2094,-3,-10,-10,16360.543,-574.943,-124.515,-649.610
5.064788,-11,37,-2106,-3,-12,-7,16360.480,-575.436,-124.515,-650.764,437,-1350,261,32415
5.084777,-11,34,-2110,-1,-11,-9,16360.411,-576.088,-124.513,-651.920
5.104766,-7,24,-2116,-1,-11,-7,16360.339,-576.808,-124.428,-653.124
5.124725,-14,35,-2111,0,-11,-8,16360.262,-577.527,-124.443,-654.408
5.144744,-8,44,-2116,-1,-11,-10,16360.190,-578.304,-124.342,-655.524
5.164703,5,25,-2099,-1,-14,-6,16360.119,-578.966,-124.586,-656.672,432,-1345,270
5.184722,-10,30,-2091,-1,-11,-8,16360.036,-579.796,-124.608,-658.000
5.204711,-10,32,-2100,-3,-13,-7,16359.959,-580.655,-124.661,-659.159
5.224701,-1,21,-2116,-1,-12,-8,16359.884,-581.430,-124.709,-660.317
5.244690,-3,32,-2125,-1,-12,-7,16359.803,-582.287,-124.745,-661.559
5.264648,5,31,-2068,-3,-13,-7,16359.720,-583.237,-124.929,-662.750,432,-1355,254
5.284637,5,32,-2130,-3,-14,-8,16359.650,-583.849,-125.086,-663.905
5.304626,5,31,-2094,-4,-11,-7,16359.575,-584.657,-124.968,-665.064
5.324615,-17,20,-2105,-1,-13,-7,16359.493,-585.242,-125.172,-666.519
5.344604,9,23,-2078,-3,-10,-8,16359.433,-585.784,-125.334,-667.490
5.364593,8,35,-2109,-4,-11,-7,16359.348,-586.687,-125.568,-668.723,440,-1348,257
5.384582,-16,32,-2079,-4,-12,-8,16359.282,-587.385,-125.802,-669.698
5.404571,-5,34,-2082,-3,-11,-5,16359.209,-587.953,-125.987,-670.935
5.424560,-13,36,-2128,-4,-13,-9,16359.116,-588.913,-126.056,-672.350
5.444549,-9,46,-2113,-3,-13,-9,16359.036,-589.576,-126.208,-673.676
5.464538,-9,34,-2081,-1,-12,-8,16358.959,-590.338,-126.322,-674.875,434,-1350,252
5.484527,0,42,-2088,-4,-13,-7,16358.882,-591.094,-126.515,-676.026
5.504486,4,32,-2075,-3,-12,-7,16358.806,-591.711,-126.398,-677.360
5.524475,0,24,-2102,-1,-13,-8,16358.739,-592.232,-126.379,-678.517
5.544464,-6,40,-2128,-1,-11,-7,16358.680,-592.753,-126.360,-679.497
5.564453,-6,41,-2094,-1,-10,-8,16358.610,-593.374,-126.566,-680.599,439,-1352,261,32410
5.584442,-3,26,-2088,-4,-11,-7,16358.529,-593.996,-126.766,-681.968
5.604431,-8,32,-2099,-3,-10,-8,16358.449,-594.737,-126.954,-683.206
5.624420,-5,26,-2094,-3,-12,-9,16358.363,-595.601,-127.217,-684.445
5.644409,-8,27,-2088,-4,-13,-8,16358.286,-596.237,-127.229,-685.729
5.664398,-11,20,-2113,-1,-12,-8,16358.216,-596.754,-127.347,-686.923,435,-1351,260
5.684387,14,35,-2087,-4,-11,-6,16358.145,-597.333,-127.385,-688.120
5.704376,9,44,-2084,-3,-12,-8,16358.063,-598.086,-127.384,-689.407
5.724334,5,50,-2121,-1,-11,-9,16357.985,-598.795,-127.339,-690.652
5.744354,-7,34,-2110,-4,-13,-7,16357.915,-599.351,-127.459,-691.806
5.764343,-5,30,-2074,-1,-9,-8,16357.838,-600.064,-127.431,-693.008,438,-1341,255
5.784332,6,40,-2070,-1,-13,-8,16357.758,-600.661,-127.388,-694.386
5.804321,-6,29,-2116,-3,-10,-10,16357.682,-601.298,-127.381,-695.632
5.824279,6,45,-2128,-1,-11,-8,16357.608,-601.867,-127.416,-696.874
5.844268,-11,25,-2088,-3,-13,-8,16357.524,-602.689,-127.481,-698.118
5.864257,-15,30,-2115,-3,-12,-8,16357.442,-603.393,-127.598,-699.399,431,-1348,248
5.884246,-19,32,-2090,-3,-12,-9,16357.369,-603.933,-127.638,-700.640
5.904235,-10,45,-2103,-3,-12,-9,16357.293,-604.570,-127.703,-701.840
5.924224,-6,21,-2090,-3,-12,-7,16357.215,-605.381,-127.748,-702.956
5.944213,-10,39,-2107,-3,-13,-7,16357.134,-606.045,-127.839,-704.242
5.964202,5,38,-2113,-1,-12,-7,16357.067,-606.641,-127.939,-705.268,434,-1347,259
5.984191,0,25,-2080,-1,-11,-6,16356.991,-607.285,-128.104,-706.465
6.004180,-13,36,-2104,-4,-12,-7,16356.914,-607.989,-128.227,-707.620
6.024169,2,47,-2110,-1,-11,-8,16356.826,-608.778,-128.251,-708.953
6.044159,-6,32,-2104,-4,-12,-9,16356.748,-609.349,-128.380,-710.238
6.064148,-20,37,-2105,-3,-13,-7,16356.663,-610.181,-128.618,-711.432,439,-1340,252,32400
6.084106,-22,29,-2086,-5,-13,-8,16356.589,-610.741,-128.764,-712.625
6.104095,18,30,-2083,-4,-12,-7,16356.516,-611.274,-128.722,-713.872
6.124145,3,43,-2091,-1,-10,-8,16356.422,-612.193,-128.793,-715.203
6.144073,-21,34,-2102,-1,-14,-7,16356.345,-612.847,-128.488,-716.458
6.164062,9,17,-2097,-1,-12,-7,16356.266,-613.531,-128.307,-717.710,438,-1348,264
6.184051,-9,14,-2091,-1,-11,-8,16356.189,-614.122,-128.473,-718.946
6.204040,-17,33,-2092,-4,-11,-7,16356.124,-614.534,-128.538,-720.057
6.224029,-24,35,-2093,-3,-11,-8,16356.049,-614.997,-128.551,-721.345
6.244018,-2,41,-2094,-1,-11,-7,16355.974,-615.543,-128.599,-722.588
6.264007,-7,33,-2079,-1,-11,-8,16355.893,-616.310,-128.619,-723.750,437,-1345,268
6.283996,-14,24,-2107,-1,-12,-7,16355.821,-616.913,-128.432,-724.909
6.303985,-8,37,-2099,-1,-12,-8,16355.748,-617.404,-128.575,-726.104
6.323974,17,37,-2085,-4,-11,-7,16355.665,-618.065,-128.700,-727.390
6.343963,-5,34,-2100,-3,-13,-8,16355.578,-618.840,-128.682,-728.680
6.363922,-7,21,-2113,-1,-13,-10,16355.501,-619.416,-128.730,-729.923,437,-1350,261
6.383911,-2,28,-2106,-3,-11,-8,16355.425,-619.933,-128.825,-731.164
6.403930,-22,38,-2108,-3,-11,-10,16355.342,-620.656,-128.802,-732.408
6.423889,-6,24,-2106,-1,-13,-10,16355.254,-621.316,-128.682,-733.833
6.443878,-5,19,-2124,-4,-13,-10,16355.177,-621.866,-128.718,-735.074
6.463867,-18,37,-2128,-1,-11,-9,16355.100,-622.397,-128.529,-736.367,434,-1350,259
6.483856,3,49,-2109,-3,-12,-8,16355.020,-623.072,-128.623,-737.569
6.503845,-29,42,-2104,-3,-12,-7,16354.943,-623.446,-128.678,-738.942
6.523834,-17,24,-2091,-3,-10,-10,16354.875,-624.054,-128.766,-739.922
6.543853,-8,45,-2127,-3,-11,-7,16354.795,-624.688,-128.660,-741.166
6.563812,5,25,-2087,-1,-11,-7,16354.715,-625.289,-128.758,-742.412,440,-1353,264,32382
6.583801,0,32,-2106,-5,-11,-8,16354.645,-625.851,-128.680,-743.481
6.603759,-2,45,-2102,-1,-12,-8,16354.561,-626.459,-128.735,-744.811
6.623779,-9,24,-2100,-1,-10,-9,16354.482,-627.065,-128.908,-746.008
6.643768,-15,61,-2115,-1,-12,-8,16354.402,-627.746,-129.108,-747.157
6.663757,-7,27,-2082,-4,-13,-7,16354.325,-628.464,-129.065,-748.233,445,-1346,267
6.683715,-18,17,-2088,-1,-12,-8,16354.240,-629.101,-129.029,-749.563
6.703704,-5,34,-2096,-1,-12,-8,16354.161,-629.790,-128.920,-750.724
6.723693,-4,34,-2098,-3,-11,-8,16354.090,-630.119,-129.122,-751.957
6.743682,2,32,-2093,-4,-10,-8,16354.016,-630.620,-129.173,-753.156
6.763671,6,36,-2097,-3,-12,-8,16353.936,-631.198,-129.204,-754.402,432,-1352,249
6.783660,-8,31,-2071,-1,-12,-9,16353.865,-631.732,-129.298,-755.468
6.803649,-13,31,-2099,-1,-11,-8,16353.786,-632.387,-129.292,-756.626
6.823638,-10,40,-2081,-1,-11,-9,16353.699,-633.071,-129.442,-757.910
6.843628,-20,33,-2097,-1,-12,-8,16353.621,-633.683,-129.336,-759.113
6.863617,-8,37,-2103,-1,-12,-8,16353.540,-634.382,-129.267,-760.272,432,-1352,252
6.883606,-11,33,-2084,-3,-12,-8,16353.455,-635.114,-129.320,-761.472
6.903595,5,29,-2115,-3,-13,-9,16353.376,-635.715,-129.306,-762.676
6.923584,-2,48,-2119,-1,-10,-8,16353.292,-636.399,-129.190,-763.926
6.943573,-16,39,-2086,-1,-11,-8,16353.208,-637.115,-129.431,-765.077
6.963531,-17,36,-2093,-4,-13,-7,16353.141,-637.530,-129.367,-766.194,434,-1352,254
6.983551,-6,43,-2100,-1,-10,-6,16353.055,-638.149,-129.484,-767.481
7.003509,-4,27,-2088,-1,-12,-9,16352.980,-638.762,-129.665,-768.545
7.023498,-10,30,-2108,-3,-12,-8,16352.907,-639.332,-129.685,-769.616
7.043487,-10,10,-2092,-3,-13,-6,16352.828,-639.951,-129.666,-770.777
7.063476,-17,12,-2099,-3,-12,-7,16352.756,-640.372,-129.824,-771.923,438,-1356,262,32466
7.083496,-14,24,-2099,-4,-11,-9,16352.665,-640.946,-129.875,-773.380
7.103454,-4,28,-2081,-1,-11,-10,16352.583,-641.502,-129.721,-774.669
7.123443,-2,36,-2120,-1,-11,-8,16352.506,-642.017,-129.742,-775.873
7.143432,-11,20,-2100,-3,-11,-8,16352.447,-642.319,-129.749,-776.855
7.163421,5,42,-2079,-1,-11,-6,16352.363,-642.919,-129.710,-778.137,443,-1353,253
7.183410,-4,34,-2105,-3,-11,-10,16352.287,-643.390,-129.674,-779.343
7.203399,-7,24,-2091,-1,-10,-7,16352.209,-643.982,-129.603,-780.501
7.223388,10,39,-2082,-1,-12,-7,16352.119,-644.594,-129.661,-781.874
7.243377,-5,44,-2103,-3,-11,-8,16352.044,-644.966,-129.780,-783.114
7.263366,-17,37,-2099,-1,-10,-7,16351.963,-645.430,-130.177,-784.349,431,-1351,255
7.283325,-13,37,-2098,-3,-12,-8,16351.879,-646.051,-130.215,-785.592
7.303314,3,16,-2098,-1,-13,-10,16351.791,-646.899,-130.068,-786.757
7.323303,-7,18,-2111,-1,-12,-7,16351.694,-647.833,-130.076,-787.998
7.343353,-13,42,-2080,-1,-13,-7,16351.616,-648.276,-130.123,-789.242
7.363281,-9,36,-2123,-1,-11,-8,16351.510,-649.147,-130.225,-790.705,423,-1414,292
7.383270,-7,37,-2091,-1,-14,-10,16351.424,-649.663,-130.415,-792.031
7.403259,-30,2,-2080,-3,-13,-9,16351.331,-650.401,-130.592,-793.315
7.423248,3,38,-2093,-3,-12,-6,16351.250,-650.895,-130.600,-794.561
7.443237,-6,22,-2108,-1,-11,-9,16351.174,-651.383,-130.700,-795.717
7.463226,3,43,-2098,-1,-12,-7,16351.089,-651.957,-131.008,-796.948,427,-1800,368
7.483184,-1,25,-2090,-5,-13,-8,16351.006,-652.415,-131.265,-798.228
7.503204,0,31,-2108,-1,-10,-8,16350.922,-652.750,-131.459,-799.635
7.523193,0,26,-2117,-3,-11,-10,16350.831,-653.397,-131.482,-800.961
7.543151,1,46,-2078,-3,-14,-7,16350.742,-654.046,-131.555,-802.242
7.563171,3,33,-2121,-3,-11,-8,16350.656,-654.595,-131.697,-803.521,741,-2107,570,32429
7.583129,-20,38,-2098,-3,-11,-7,16350.564,-655.179,-131.787,-804.892
7.603118,1,40,-2102,-3,-11,-7,16350.469,-655.810,-131.766,-806.316
7.623107,-10,44,-2116,-3,-12,-9,16350.388,-656.472,-131.628,-807.441
7.643096,-10,34,-2081,-1,-14,-8,16350.301,-657.093,-131.776,-808.684
7.663086,-16,39,-2061,-3,-12,-7,16350.221,-657.692,-131.807,-809.798,847,-1973,486
7.683075,6,50,-2123,-1,-12,-7,16350.142,-658.363,-131.974,-810.821
7.703064,-9,25,-2088,-4,-14,-6,16350.057,-659.028,-132.190,-811.971
7.723053,12,32,-2086,-1,-12,-9,16349.971,-659.549,-132.323,-813.251
7.743042,-23,21,-2081,-4,-11,-9,16349.897,-659.985,-132.428,-814.358
7.763031,-13,34,-2105,-3,-11,-6,16349.818,-660.625,-132.159,-815.481,868,-2069,408
7.783020,-2,23,-2118,-1,-11,-8,16349.721,-661.391,-132.383,-816.763
7.802978,-19,45,-2108,-3,-13,-9,16349.632,-662.006,-132.323,-818.050
7.822998,9,52,-2134,-3,-12,-9,16349.543,-662.594,-132.407,-819.340
7.843048,-4,22,-2088,-4,-12,-9,16349.458,-663.160,-132.421,-820.582
7.862976,44,216,-2268,-1,-12,-7,16349.375,-663.577,-132.096,-821.946,867,-2218,367
7.882934,-21,-4,-2118,-1,-11,-9,16349.286,-664.076,-132.273,-823.284
7.902923,-17,36,-2109,-3,-12,-8,16349.204,-664.452,-132.179,-824.614
7.922912,-11,36,-2093,-3,-11,-7,16349.119,-665.068,-132.135,-825.820
7.942962,-1,38,-2088,-1,-12,-8,16349.044,-665.571,-132.175,-826.889
7.962890,1,33,-2098,-3,-11,-6,16348.959,-666.219,-132.106,-828.053
7.982879,1,31,-2081,-1,-14,-10,16348.870,-666.745,-132.128,-829.383,867,-2310,276
8.002868,19,44,-2117,-1,-12,-9,16348.781,-667.298,-131.917,-830.725
8.022857,-6,39,-2102,-1,-11,-7,16348.697,-667.908,-132.002,-831.880
8.042846,1,42,-2093,-3,-10,-8,16348.608,-668.336,-132.123,-833.253
8.062805,-1,52,-2075,-3,-11,-7,16348.526,-668.898,-132.175,-834.409,867,-2310,276,32445
8.082824,-8,30,-2088,-3,-11,-7,16348.444,-669.429,-132.307,-835.566,864,-2334,199
8.102783,-22,43,-2096,-1,-11,-7,16348.353,-670.043,-132.244,-836.857
8.122772,-15,29,-2111,-1,-12,-8,16348.268,-670.589,-132.408,-838.057
8.142791,-2,15,-2111,-4,-13,-7,16348.177,-671.246,-132.476,-839.301
8.162750,4,25,-2107,-3,-12,-9,16348.100,-671.688,-132.439,-840.454
8.182739,-11,38,-2068,-1,-11,-8,16348.015,-672.371,-132.385,-841.573,881,-2332,208
8.202728,-24,45,-2103,-1,-11,-7,16347.913,-672.944,-132.419,-843.079
8.222717,0,42,-2091,-3,-10,-10,16347.839,-673.396,-132.494,-844.148
8.242706,-2,16,-2113,-3,-14,-6,16347.747,-673.991,-132.587,-845.431
8.262695,-15,31,-2088,-3,-11,-7,16347.663,-674.482,-132.429,-846.686
8.282684,-11,31,-2134,-3,-12,-8,16347.578,-675.087,-132.544,-847.838,882,-2333,210
8.302673,1,36,-2093,-1,-11,-8,16347.478,-675.577,-132.706,-849.339
8.322662,0,17,-2086,-3,-11,-9,16347.402,-676.080,-132.612,-850.417
8.342651,3,31,-2087,-1,-11,-7,16347.322,-676.642,-132.850,-851.477
8.362609,-17,41,-2083,-3,-12,-7,16347.233,-677.098,-132.875,-852.808
8.382598,-16,29,-2097,-3,-12,-7,16347.126,-677.742,-132.887,-854.360,865,-2333,217
8.402618,-20,35,-2128,-1,-13,-11,16347.033,-678.441,-133.049,-855.557
8.422607,3,28,-2110,-3,-13,-7,16346.943,-679.013,-133.085,-856.801
8.442596,-2,41,-2094,-3,-13,-9,16346.856,-679.428,-133.122,-858.131
8.462585,-1,41,-2106,-3,-12,-7,16346.764,-679.952,-133.151,-859.461
8.482544,-5,19,-2054,-3,-11,-8,16346.669,-680.454,-133.061,-860.885,885,-2340,212
8.502533,2,28,-2096,-1,-10,-11,16346.569,-681.074,-133.312,-862.248
8.522522,-1,30,-2099,-3,-11,-8,16346.483,-681.678,-133.364,-863.404
8.542511,3,20,-2091,-3,-13,-8,16346.396,-682.342,-133.452,-864.515
8.562591,-9,21,-2098,-3,-12,-8,16346.314,-682.705,-133.547,-865.749,885,-2340,212,32476
8.582489,1,34,-2093,-1,-12,-6,16346.228,-683.182,-133.542,-866.996,875,-2333,214
8.602478,-19,25,-2116,-3,-12,-8,16346.142,-683.760,-133.753,-868.146
8.622467,-10,43,-2104,-4,-12,-9,16346.090,-683.815,-133.933,-869.039
8.642456,-4,32,-2099,-4,-1,-1,16346.140,-682.714,-133.896,-868.971
8.662445,-3,28,-2118,-2,-2,-1,16346.179,-681.648,-133.944,-869.073
8.682434,-9,49,-2090,-3,-3,-1,16346.234,-680.265,-133.880,-869.136,869,-2344,206
8.702392,11,31,-2083,0,0,-2,16346.276,-679.088,-134.007,-869.237
8.722381,5,40,-2087,-2,-3,-2,16346.309,-678.012,-133.872,-869.475
8.742370,-5,25,-2093,0,0,0,16346.340,-676.894,-133.687,-869.800
8.762390,2,43,-2087,-1,-2,-2,16346.378,-675.868,-133.562,-869.909
8.782348,-9,52,-2075,-1,-1,-3,16346.416,-674.906,-133.691,-869.921,880,-2335,203
8.802337,1,45,-2084,-2,-2,-1,16346.460,-673.576,-133.771,-870.108
8.822326,3,28,-2116,-1,-1,-1,16346.497,-672.419,-133.859,-870.298
8.842315,-1,25,-2113,-2,-2,-4,16346.545,-671.286,-133.812,-870.272
8.862304,-9,38,-2078,-1,-2,-1,16346.589,-669.956,-133.927,-870.457
8.882293,-11,21,-2099,-1,-1,0,16346.635,-668.928,-133.835,-870.390,880,-2338,214
8.902282,-14,23,-2074,-1,-2,-1,16346.670,-667.897,-133.736,-870.539
8.922271,15,37,-2118,0,0,-1,16346.709,-666.794,-133.793,-870.639
8.942260,-3,55,-2082,-3,-1,-1,16346.733,-665.949,-133.826,-870.833
8.962249,-15,36,-2106,-2,-2,-1,16346.749,-665.139,-133.767,-871.168
8.982238,-14,34,-2108,-1,-4,-2,16346.788,-663.930,-133.711,-871.362,876,-2341,213
9.002197,8,30,-2104,2,0,-2,16346.830,-662.776,-133.616,-871.467
9.022216,-14,36,-2104,-2,-2,-1,16346.864,-661.759,-133.618,-871.610
9.042205,-3,28,-2092,-2,-5,-2,16346.917,-660.604,-133.531,-871.497
9.062194,-3,58,-2135,-2,-1,0,16346.947,-659.626,-133.475,-871.689,876,-2341,213,32453
9.082153,-3,33,-2111,0,-2,-1,16346.985,-658.623,-133.637,-871.705,867,-2339,208
9.102142,6,30,-2108,-3,-2,-1,16347.039,-657.508,-133.510,-871.551
9.122131,-4,46,-2122,-1,-2,1,16347.061,-656.848,-133.692,-871.606
9.142120,10,30,-2090,-3,-4,-1,16347.095,-655.826,-133.663,-871.758
9.162109,10,35,-2082,-1,-1,-1,16347.139,-654.616,-133.838,-871.806
9.182098,-15,38,-2085,-5,-3,-1,16347.190,-653.561,-133.829,-871.647,722,-2001,541
9.202087,-15,44,-2078,-2,-1,0,16347.239,-652.479,-133.531,-871.590
9.222076,-5,35,-2095,0,-2,0,16347.289,-651.402,-133.619,-871.429
9.242065,-23,31,-2088,-3,-4,1,16347.341,-650.269,-133.584,-871.316
9.262054,-5,37,-2129,-1,-4,1,16347.396,-649.156,-133.649,-871.110
9.282013,0,24,-2093,-1,-1,1,16347.443,-648.012,-133.611,-871.083,547,-1719,545
9.302032,17,39,-2093,-1,-1,0,16347.479,-646.906,-133.577,-871.226
9.321991,-1,48,-2124,-1,-2,-2,16347.514,-645.872,-133.630,-871.326
9.342010,-10,38,-2108,-2,-3,-1,16347.552,-644.937,-133.737,-871.296
9.361999,0,40,-2107,-3,-1,-1,16347.593,-643.954,-133.633,-871.275
9.381958,-11,44,-2081,-1,-3,1,16347.633,-643.048,-133.435,-871.210,457,-1625,514
9.401947,5,40,-2097,0,-1,-2,16347.664,-641.923,-133.590,-871.438
9.421936,-17,36,-2086,-2,-2,-4,16347.700,-640.810,-133.619,-871.585
9.441925,-10,39,-2098,-1,-2,-1,16347.748,-639.706,-133.751,-871.470
9.461914,-23,33,-2061,-3,-3,-1,16347.785,-638.708,-133.835,-871.486
9.481903,-3,40,-2097,-3,-2,0,16347.820,-637.680,-133.761,-871.593,418,-1683,563
9.501892,-18,26,-2070,-2,-3,-1,16347.876,-636.657,-133.785,-871.306
9.521881,-10,40,-2083,-2,-1,1,16347.917,-635.570,-133.797,-871.317
9.541870,-8,19,-2091,-1,-1,-3,16347.961,-634.574,-133.610,-871.252
9.561828,-1,28,-2105,-1,-2,-1,16348.002,-633.525,-133.492,-871.269,418,-1683,563,32445
9.581848,-9,40,-2098,-2,-2,-1,16348.025,-632.575,-133.571,-871.499,256,-2257,692
9.601837,-22,38,-2102,-3,-3,-2,16348.055,-631.542,-133.694,-871.682
9.621795,3,35,-2085,-3,-1,0,16348.085,-630.548,-133.734,-871.829
9.641784,1,59,-2118,-2,-2,0,16348.105,-629.753,-133.710,-872.022
9.661773,2,37,-2110,-2,-2,-3,16348.143,-628.733,-133.830,-872.036
9.681762,-10,24,-2110,-2,-1,-1,16348.183,-627.749,-133.732,-872.010,-28,-2902,672
9.701751,-7,62,-2107,-3,-2,-1,16348.223,-626.594,-133.886,-872.065
9.721771,-5,39,-2091,-2,-1,0,16348.251,-625.616,-134.057,-872.207
9.741851,0,36,-2098,-2,-3,-2,16348.288,-624.612,-134.149,-872.223
9.761718,-10,47,-2096,-1,-1,0,16348.332,-623.447,-134.187,-872.234
9.781768,-15,23,-2108,-2,-2,1,16348.360,-622.498,-134.130,-872.384,-200,-3287,534
9.801696,-9,35,-2116,-1,-1,-1,16348.390,-621.393,-134.159,-872.613
9.821685,-7,49,-2187,-3,-3,-2,16348.403,-621.409,-129.899,-873.000
9.841674,-4,29,-2132,12,23,0,16348.538,-618.230,-128.599,-872.923
9.861633,5,33,-2106,15,29,0,16348.635,-615.622,-127.667,-873.090
9.881622,1,24,-2109,0,-1,0,16348.680,-614.486,-127.549,-873.061,-369,-3533,328
9.901641,-14,39,-2105,-2,-1,-3,16348.706,-613.651,-127.559,-873.163
9.921600,-31,36,-2127,-2,-2,-1,16348.742,-612.648,-127.394,-873.225
9.941619,-31,31,-2109,-2,-2,0,16348.791,-611.317,-127.268,-873.245
9.961578,-2,33,-2086,-2,-1,0,16348.838,-609.994,-127.165,-873.303
9.981567,4,31,-2072,-1,-2,0,16348.876,-608.679,-127.308,-873.487,-462,-3755,-38
10.001556,-9,47,-2095,-1,0,-2,16348.910,-607.627,-127.362,-873.587
10.021545,-25,24,-2099,-1,-2,-1,16348.937,-606.786,-127.470,-873.644
10.041565,-5,11,-2152,-3,-4,-1,16348.968,-605.811,-127.476,-873.746
10.061523,-19,20,-2094,-2,-2,-1,16349.012,-604.543,-127.548,-873.796,-462,-3755,-38,32447
10.081512,-3,38,-2102,-2,-1,-3,16349.049,-603.341,-127.508,-873.938,-469,-3805,-43
10.101501,-2,28,-2090,0,0,-2,16349.087,-602.242,-127.422,-873.994
10.121490,-3,29,-2112,-4,-3,-2,16349.121,-601.193,-127.282,-874.099
10.141449,-4,37,-2110,3,0,-2,16349.138,-600.391,-127.312,-874.330
10.161468,-7,28,-2107,1,0,-2,16349.183,-599.088,-127.248,-874.389
10.181457,-11,36,-2090,-1,0,-1,16349.224,-598.003,-127.320,-874.354,-464,-3854,-26
10.201446,10,21,-2116,-1,-1,-1,16349.257,-596.898,-127.272,-874.502
10.221405,-31,38,-2099,-1,-1,-1,16349.300,-595.812,-126.963,-874.483
10.241394,-17,29,-2128,0,-1,1,16349.331,-594.729,-127.042,-874.627
10.261383,-9,18,-2088,-2,-1,-2,16349.377,-593.590,-127.001,-874.554
10.281372,-6,7,-2118,-2,-1,-1,16349.407,-592.653,-127.032,-874.609,-463,-3901,-32
10.301361,-10,38,-2094,-1,-1,-3,16349.435,-591.544,-127.075,-874.837
; 10 stopping logging: shutdown: switched off
