;Title, http://www.gcdataconcepts.com, HAM-IMU, MPU-9250,,,,,,,,,,,,
;Version,1191, Build date, Nov 15 2016,  SN:CCDC30161C28AA2,,,,,,,,,,,
;Start_time, 2018-06-15, 17:42:21.889,2018-06-15 17:42:21.889,,,,,,,,,,,,
;Temperature,-999, deg C,  Vbat,4084, mv,,,,,,,,,,
;MPU SR,200,Hz,  Accel sens,2048,counts/g, Gyro sens,16,counts/dps,  Mag SR,10,Hz,  Mag sens,1666,counts/mT,
;Deadband,0, counts,,,,,,,,,,,,,
;DeadbandTimeout,5,sec,,,,,,,,,,,,,
;Time, Ax, Ay, Az, Gx, Gy, Gz, Qw, Qx, Qy, Qz, Mx, My, Mz, T,Date Time
0.001617,-404,2007,-404,168,12,30,12440.897,4501.724,-9538.05,1555.501,,,,,2018-06-15 17:42:21.891
0.013489,-355,2048,-420,239,-17,49,12466.56,4484.687,-9509.329,1574.974,311,145,151,,2018-06-15 17:42:21.902
0.033478,-449,2022,-431,259,-35,93,12493.035,4462.972,-9479.857,1604.272,,,,,2018-06-15 17:42:21.922
0.053467,-538,1989,-510,281,-27,145,12519.89,4440.268,-9449.959,1634.04,,,,,2018-06-15 17:42:21.942
0.073456,-512,2006,-501,277,-24,128,12547.864,4421.309,-9417.516,1657.996,,,,,2018-06-15 17:42:21.962
0.093445,-436,1996,-516,275,-16,73,12578.587,4408.356,-9379.212,1676.706,,,,,2018-06-15 17:42:21.982
0.113434,-374,1962,-592,305,-35,26,12611.339,4395.455,-9338.51,1691.679,328,149,151,,2018-06-15 17:42:22.002
0.133514,-363,1948,-513,311,-40,20,12644.821,4380.545,-9296.835,1709.86,,,,,2018-06-15 17:42:22.023
0.153412,-407,1964,-540,326,-34,37,12676.992,4364.56,-9257.027,1728.399,,,,,2018-06-15 17:42:22.042
0.173431,-453,1919,-465,314,-36,38,12710.682,4348.558,-9215.591,1742.679,,,,,2018-06-15 17:42:22.062
0.19342,-402,1920,-513,321,-46,17,12746.244,4332.048,-9172.221,1752.832,,,,,2018-06-15 17:42:22.082
0.213379,-425,1899,-613,341,-66,2,12778.734,4316.778,-9132.519,1761.22,322,153,143,,2018-06-15 17:42:22.102
0.233398,-350,1938,-587,292,-65,-3,12810.305,4300.932,-9094.176,1769.024,,,,,2018-06-15 17:42:22.122
0.253387,-313,1937,-549,284,-73,-3,12839.338,4285.32,-9058.908,1777.368,,,,,2018-06-15 17:42:22.142
0.273376,-329,1960,-628,257,-95,3,12865.839,4262.998,-9030.641,1783.253,,,,,2018-06-15 17:42:22.162
0.293365,-389,1998,-571,211,-93,39,12888.727,4235.234,-9010.301,1787.014,,,,,2018-06-15 17:42:22.182
0.313354,-420,1964,-627,162,-144,53,12907.056,4208.845,-8996.444,1786.881,322,136,129,39812,2018-06-15 17:42:22.202
0.333343,-400,1926,-598,120,-132,36,12923.132,4185.749,-8984.77,1783.676,,,,,2018-06-15 17:42:22.222
0.353332,-493,1951,-611,87,-124,16,12933.875,4171.037,-8976.512,1781.849,,,,,2018-06-15 17:42:22.242
0.373321,-442,1986,-642,68,-73,1,12939.577,4164.987,-8971.833,1778.165,,,,,2018-06-15 17:42:22.262
0.393341,-393,1961,-596,21,-18,-22,12942.222,4166.04,-8967.438,1778.621,,,,,2018-06-15 17:42:22.282
0.413299,-445,1956,-609,20,12,-9,12939.732,4172.527,-8966.387,1786.81,329,143,127,,2018-06-15 17:42:22.302
0.433319,-489,1923,-630,2,88,19,12933.807,4184.232,-8966.7,1800.712,,,,,2018-06-15 17:42:22.322
0.453277,-429,1939,-658,-12,131,31,12926.222,4199.732,-8966.699,1819,,,,,2018-06-15 17:42:22.342
0.473266,-382,1938,-651,-11,147,40,12917.89,4216.578,-8966.095,1842.05,,,,,2018-06-15 17:42:22.362
0.493286,-332,1977,-613,-10,164,55,12908.866,4231.063,-8966.859,1868.198,,,,,2018-06-15 17:42:22.382
0.513275,-347,1976,-617,4,148,71,12898.912,4241.744,-8970.077,1897.06,335,120,114,,2018-06-15 17:42:22.402
0.533234,-427,1952,-694,-14,162,108,12887.401,4252.227,-8975.235,1927.188,,,,,2018-06-15 17:42:22.422
0.553253,-415,1995,-754,-26,171,101,12876.423,4263.23,-8980.521,1951.48,,,,,2018-06-15 17:42:22.442
0.573242,-354,1988,-637,-45,129,71,12867.821,4273.813,-8983.287,1972.228,,,,,2018-06-15 17:42:22.462
0.593231,-373,2006,-693,-12,122,58,12859.841,4285.404,-8984.613,1992.978,,,,,2018-06-15 17:42:22.482
0.61322,-365,1985,-662,-10,138,50,12853.828,4296.966,-8983.739,2010.737,334,134,122,,2018-06-15 17:42:22.502
0.633209,-389,1969,-681,-5,111,24,12848.401,4308.373,-8983.663,2021.322,,,,,2018-06-15 17:42:22.522
0.653198,-304,1991,-683,-13,94,-4,12844.303,4318.555,-8982.957,2028.762,,,,,2018-06-15 17:42:22.542
0.673187,-290,2025,-633,-15,78,-2,12839.158,4325.559,-8984.891,2037.822,,,,,2018-06-15 17:42:22.562
0.693176,-352,2012,-667,-25,66,17,12831.927,4330.823,-8990.06,2049.357,,,,,2018-06-15 17:42:22.582
0.713165,-343,1978,-721,-46,79,45,12825.556,4333.912,-8994.945,2061.243,331,129,113,,2018-06-15 17:42:22.602
0.733154,-402,1987,-731,-39,58,46,12820.355,4338.3,-8997.174,2074.595,,,,,2018-06-15 17:42:22.622
0.753143,-292,1962,-707,-15,63,37,12817.415,4342.815,-8996.905,2084.459,,,,,2018-06-15 17:42:22.642
0.773163,-393,1968,-686,-3,40,16,12816.764,4344.387,-8995.444,2091.474,,,,,2018-06-15 17:42:22.662
0.793152,-342,1977,-644,12,34,13,12817.403,4346.059,-8992.64,2096.141,,,,,2018-06-15 17:42:22.682
0.813141,-343,1988,-664,11,12,-5,12816.555,4349.647,-8991.686,2097.973,328,128,125,39777,2018-06-15 17:42:22.702
0.833099,-374,2003,-618,1,33,-20,12815.342,4354.799,-8990.548,2099.576,,,,,2018-06-15 17:42:22.722
0.853119,-396,1983,-630,0,42,-20,12813.707,4359.687,-8989.604,2103.446,,,,,2018-06-15 17:42:22.742
0.873108,-385,1999,-659,-2,40,0,12811.318,4365.077,-8989.105,2108.948,,,,,2018-06-15 17:42:22.762
0.893097,-370,2009,-658,-7,60,3,12807.507,4373.466,-8988.562,2117.009,,,,,2018-06-15 17:42:22.782
0.913086,-324,1985,-716,-4,80,5,12803.82,4383.443,-8986.306,2128.227,340,137,125,,2018-06-15 17:42:22.802
0.933075,-292,1969,-691,1,110,11,12799.507,4392.377,-8985.007,2141.199,,,,,2018-06-15 17:42:22.822
0.953064,-388,2006,-680,-8,88,24,12792.221,4400.863,-8988.045,2154.52,,,,,2018-06-15 17:42:22.842
0.973053,-363,1988,-643,-45,90,33,12783.573,4410.399,-8993.569,2163.28,,,,,2018-06-15 17:42:22.862
0.993042,-263,2038,-649,-59,87,9,12773.15,4422.758,-9000.777,2169.632,,,,,2018-06-15 17:42:22.882
1.013031,-313,1981,-670,-69,85,-8,12762.17,4435.223,-9008.601,2176.313,325,145,128,,2018-06-15 17:42:22.902
1.03302,-380,1944,-652,-75,85,-3,12750.745,4445.747,-9018.54,2180.644,,,,,2018-06-15 17:42:22.922
1.053039,-355,1968,-705,-92,76,2,12738.041,4455.637,-9031.211,2182.26,,,,,2018-06-15 17:42:22.942
1.072998,-271,2008,-575,-116,59,-8,12724.353,4465.651,-9045.454,2182.656,,,,,2018-06-15 17:42:22.962
1.092987,-337,1978,-589,-127,35,-15,12706.8,4479.225,-9062.935,2184.585,,,,,2018-06-15 17:42:22.982
1.113067,-358,1989,-625,-158,94,-3,12685.787,4491.165,-9086.742,2183.299,319,143,124,,2018-06-15 17:42:23.002
1.132995,-364,2018,-623,-212,76,-5,12659.81,4503.991,-9117.013,2181.467,,,,,2018-06-15 17:42:23.022
1.152954,-282,2030,-526,-249,87,19,12630.703,4513.96,-9153.112,2178.41,,,,,2018-06-15 17:42:23.042
1.172943,-325,1998,-498,-287,32,25,12597.681,4523.079,-9195.064,2174.035,,,,,2018-06-15 17:42:23.062
1.192963,-349,1980,-513,-318,27,31,12560.06,4533.979,-9242.414,2168.208,,,,,2018-06-15 17:42:23.082
1.212952,-388,1953,-510,-366,36,34,12518.83,4546.388,-9294.254,2159.055,326,139,131,,2018-06-15 17:42:23.102
1.232941,-300,2022,-483,-399,63,18,12475.687,4557.443,-9349.503,2146.897,,,,,2018-06-15 17:42:23.122
1.25293,-348,1950,-363,-419,30,12,12430.746,4566.183,-9408.046,2133.219,,,,,2018-06-15 17:42:23.142
1.272919,-391,1963,-424,-432,1,33,12384.518,4571.696,-9470.021,2115.995,,,,,2018-06-15 17:42:23.162
1.292908,-311,2025,-417,-459,2,38,12338.329,4576.559,-9532.304,2095.554,,,,,2018-06-15 17:42:23.182
1.312897,-297,1989,-391,-465,-26,20,12293.195,4578.693,-9593.984,2074.567,322,134,134,39790,2018-06-15 17:42:23.202
1.332886,-311,2012,-387,-454,-32,26,12249.01,4578.62,-9654.5,2055.249,,,,,2018-06-15 17:42:23.222
1.352936,-312,1994,-316,-442,-43,42,12205.607,4574.221,-9714.939,2038.393,,,,,2018-06-15 17:42:23.242
1.372864,-270,2014,-278,-427,-61,61,12165.05,4569.784,-9771.386,2020.913,,,,,2018-06-15 17:42:23.262
1.392883,-306,2008,-357,-397,-55,44,12125.543,4559.844,-9827.66,2007.878,,,,,2018-06-15 17:42:23.282
1.412842,-354,2017,-388,-374,-77,88,12090.141,4547.353,-9878.936,1998.026,324,148,145,,2018-06-15 17:42:23.302
1.432831,-492,1992,-372,-342,-52,117,12055.421,4537.535,-9926.047,1996.656,,,,,2018-06-15 17:42:23.322
1.45285,-397,1987,-374,-313,-40,104,12027.516,4527.369,-9966.336,1987.297,,,,,2018-06-15 17:42:23.342
1.472839,-306,2074,-209,-276,-44,51,12002.541,4523.3,-10000.055,1978.154,,,,,2018-06-15 17:42:23.362
1.492828,-395,2097,-238,-223,-47,27,11977.212,4522.748,-10031.566,1973.39,,,,,2018-06-15 17:42:23.382
1.512817,-407,2064,-249,-220,36,44,11952.405,4525.833,-10059.36,1975.235,320,145,154,,2018-06-15 17:42:23.402
1.532806,-313,2046,-340,-194,90,53,11927.507,4532.858,-10084.437,1981.75,,,,,2018-06-15 17:42:23.422
1.552795,-333,2056,-224,-186,96,53,11905.61,4539.449,-10105.672,1990.148,,,,,2018-06-15 17:42:23.442
1.572784,-402,2091,-292,-164,90,49,11883.937,4549.871,-10124.564,1999.838,,,,,2018-06-15 17:42:23.462
1.592773,-374,2077,-278,-146,96,28,11865.952,4561.492,-10139.433,2004.82,,,,,2018-06-15 17:42:23.482
1.612762,-295,2052,-230,-124,55,-3,11849.795,4573.473,-10151.963,2009.674,319,155,171,,2018-06-15 17:42:23.502
1.632751,-223,2084,-194,-97,88,4,11836.6,4579.207,-10162.674,2020.212,,,,,2018-06-15 17:42:23.522
1.65274,-250,2176,-303,-86,69,57,11822.07,4577.632,-10176.63,2038.523,,,,,2018-06-15 17:42:23.542
1.67276,-231,2059,-293,-64,63,126,11806.6,4570.989,-10192.691,2062.697,,,,,2018-06-15 17:42:23.562
1.692718,-268,2041,-255,-81,54,161,11793.462,4559.938,-10207.514,2088.856,,,,,2018-06-15 17:42:23.582
1.712738,-291,2033,-236,-53,65,174,11783.505,4548.077,-10218.218,2118.359,324,158,178,,2018-06-15 17:42:23.602
1.732696,-286,2030,-225,-18,63,178,11775.16,4536.428,-10226.728,2148.464,,,,,2018-06-15 17:42:23.622
1.752716,-309,2034,-211,-8,72,174,11769.045,4526.961,-10231.799,2177.595,,,,,2018-06-15 17:42:23.642
1.772705,-272,2017,-247,14,80,152,11764.937,4521.772,-10232.367,2207.701,,,,,2018-06-15 17:42:23.662
1.792694,-231,2007,-252,47,99,128,11764.826,4517.157,-10228.608,2234.985,,,,,2018-06-15 17:42:23.682
1.812683,-281,2000,-198,66,86,110,11765.469,4514.816,-10222.273,2265.113,329,160,183,39781,2018-06-15 17:42:23.702
1.832672,-303,2055,-273,77,100,108,11765.274,4516.203,-10215.328,2294.5,,,,,2018-06-15 17:42:23.722
1.852661,-247,2089,-237,71,123,92,11764.691,4523.445,-10205.868,2325.117,,,,,2018-06-15 17:42:23.742
1.87265,-244,2038,-217,69,152,73,11762.705,4533.857,-10195.863,2358.544,,,,,2018-06-15 17:42:23.762
1.892639,-150,2096,-231,67,172,75,11757.268,4548.038,-10187.787,2392.997,,,,,2018-06-15 17:42:23.782
1.912628,-265,2083,-172,45,207,67,11749.09,4565.572,-10181.141,2427.802,336,163,192,,2018-06-15 17:42:23.802
1.932617,-278,2058,-238,29,214,57,11738.547,4587.353,-10175.98,2459.179,,,,,2018-06-15 17:42:23.822
1.952606,-220,2071,-230,1,235,33,11725.554,4614.795,-10171.301,2489.002,,,,,2018-06-15 17:42:23.842
1.972595,-261,2037,-225,-20,250,13,11710.676,4645.258,-10167.456,2517.918,,,,,2018-06-15 17:42:23.862
1.992584,-273,2029,-236,-26,261,2,11695.104,4677.699,-10163.882,2544.525,,,,,2018-06-15 17:42:23.882
2.012573,-240,2049,-228,-28,261,-14,11680.315,4713.548,-10157.554,2571.424,333,159,186,,2018-06-15 17:42:23.902
2.032593,-379,2143,-238,-18,277,-31,11668.787,4749.207,-10145.851,2604.145,,,,,2018-06-15 17:42:23.922
2.052582,-386,2023,-199,55,310,12,11653.499,4795.097,-10134.342,2633.162,,,,,2018-06-15 17:42:23.942
2.072571,-361,2015,-241,0,326,-69,11638.875,4846.216,-10120.411,2657.723,,,,,2018-06-15 17:42:23.962
2.09256,-281,2068,-222,-15,350,-110,11624.386,4901.191,-10104.37,2681.251,,,,,2018-06-15 17:42:23.982
2.11261,-304,2119,-267,-3,353,-118,11607.463,4957.049,-10088.845,2710.184,345,174,193,,2018-06-15 17:42:24.002
2.132538,-303,2088,-147,-14,384,-82,11588.59,5012.155,-10073.499,2746.44,,,,,2018-06-15 17:42:24.022
2.152527,-357,2159,-197,4,420,-52,11572.142,5061.097,-10055.554,2791.43,,,,,2018-06-15 17:42:24.042
2.172516,-314,2057,-271,93,394,22,11557.611,5111.813,-10032.126,2843.037,,,,,2018-06-15 17:42:24.062
2.192505,-250,2006,-300,86,426,-10,11548.308,5159.087,-10003.439,2896.039,,,,,2018-06-15 17:42:24.082
2.212494,-196,1995,-289,148,423,3,11545.151,5199.711,-9969.523,2952.381,343,163,190,,2018-06-15 17:42:24.101
2.232483,-241,1997,-293,203,398,23,11546.72,5232.702,-9933.48,3008.902,,,,,2018-06-15 17:42:24.121
2.252472,-233,1992,-272,220,356,44,11551.796,5257.906,-9896.665,3066.25,,,,,2018-06-15 17:42:24.141
2.272461,-247,1978,-265,243,320,72,11559.184,5276.23,-9860.185,3123.913,,,,,2018-06-15 17:42:24.161
2.29245,-194,1960,-267,264,287,90,11568.369,5288.828,-9824.791,3179.628,,,,,2018-06-15 17:42:24.181
2.312439,-210,1985,-286,262,256,99,11577.75,5299.462,-9789.529,3236.039,330,169,193,39777,2018-06-15 17:42:24.201
2.332428,-248,2014,-258,258,244,106,11585.299,5307.404,-9757.85,3291.215,,,,,2018-06-15 17:42:24.221
2.352417,-211,2013,-180,236,238,125,11589.489,5313.327,-9731.552,3344.343,,,,,2018-06-15 17:42:24.241
2.372436,-224,2066,-145,190,214,134,11586.841,5319.085,-9713.123,3397.517,,,,,2018-06-15 17:42:24.261
2.392425,-267,2070,-93,132,243,163,11575.299,5328.389,-9703.829,3448.459,,,,,2018-06-15 17:42:24.281
2.412414,-185,2123,-128,60,242,156,11556.839,5341.448,-9702.428,3493.81,337,157,200,,2018-06-15 17:42:24.301
2.432403,-245,2130,-142,-16,245,150,11531.194,5357.227,-9708.01,3538.594,,,,,2018-06-15 17:42:24.321
2.452362,-232,2088,-159,-67,261,165,11500.248,5375.135,-9719.116,3581.403,,,,,2018-06-15 17:42:24.341
2.472381,-228,2091,-215,-98,268,165,11467.774,5394.08,-9731.456,3623.293,,,,,2018-06-15 17:42:24.361
2.49237,-218,2099,-209,-108,256,156,11437.222,5410.739,-9742.548,3664.974,,,,,2018-06-15 17:42:24.381
2.512359,-219,2097,-199,-80,246,163,11409.402,5424.354,-9751.399,3707.771,335,162,200,,2018-06-15 17:42:24.401
2.532379,-168,2083,-259,-51,239,170,11384.558,5435.97,-9756.96,3752.229,,,,,2018-06-15 17:42:24.421
2.552338,-183,2051,-278,-36,237,174,11363.227,5445.2,-9758.552,3799.071,,,,,2018-06-15 17:42:24.441
2.572388,-115,2063,-272,4,236,178,11346.831,5452.104,-9754.244,3848.915,,,,,2018-06-15 17:42:24.461
2.592316,-101,2076,-246,45,229,178,11333.502,5455.497,-9747.052,3901.239,,,,,2018-06-15 17:42:24.481
2.612305,-114,2098,-222,88,229,194,11322.864,5457.387,-9736.568,3955.293,331,172,192,,2018-06-15 17:42:24.501
2.632294,-177,2063,-299,110,233,187,11312.47,5462.448,-9724.008,4008.587,,,,,2018-06-15 17:42:24.521
2.652283,-221,2075,-215,104,245,165,11303.349,5473.489,-9707.966,4057.838,,,,,2018-06-15 17:42:24.541
2.672272,-158,2089,-211,108,266,110,11295.856,5493.504,-9686.521,4102.656,,,,,2018-06-15 17:42:24.561
2.692261,-107,2113,-218,123,279,49,11288.515,5520.786,-9661.305,4145.475,,,,,2018-06-15 17:42:24.581
2.71228,-115,2061,-280,113,322,20,11280.016,5552.413,-9634.246,4189.114,339,163,206,,2018-06-15 17:42:24.601
2.732239,-86,2024,-275,112,337,12,11272.735,5586.385,-9602.874,4235.326,,,,,2018-06-15 17:42:24.621
2.752258,-103,2069,-280,141,356,0,11268.074,5622.988,-9565.595,4283.379,,,,,2018-06-15 17:42:24.641
2.772247,-68,2038,-392,178,367,-17,11265.951,5659.012,-9524.974,4331.77,,,,,2018-06-15 17:42:24.661
2.792236,-74,2061,-279,198,371,-22,11265.865,5693.967,-9481.885,4380.448,,,,,2018-06-15 17:42:24.681
2.812225,-113,2068,-314,205,362,-24,11266.499,5728.378,-9438.123,4428.198,343,165,197,39792,2018-06-15 17:42:24.701
2.832214,-95,2045,-383,222,347,-30,11269.978,5760.588,-9392.679,4473.951,,,,,2018-06-15 17:42:24.721
2.852203,-130,2044,-379,235,346,-36,11276.282,5791.986,-9345.144,4516.866,,,,,2018-06-15 17:42:24.741
2.872192,-114,2111,-340,245,309,-65,11286.058,5821.374,-9297.071,4553.723,,,,,2018-06-15 17:42:24.761
2.892181,-112,2130,-367,240,289,-79,11294.176,5850.717,-9250.956,4589.763,,,,,2018-06-15 17:42:24.781
2.91217,-127,2138,-353,220,284,-66,11299.863,5879.113,-9209.097,4623.537,335,166,203,,2018-06-15 17:42:24.801
2.932159,-141,2129,-367,194,271,-64,11305.373,5905.333,-9169.528,4655.185,,,,,2018-06-15 17:42:24.821
2.952148,-168,2100,-388,192,253,-61,11311.075,5929.243,-9131.22,4686.14,,,,,2018-06-15 17:42:24.841
2.972137,-206,2070,-437,194,246,-50,11318.056,5951.936,-9093.087,4714.581,,,,,2018-06-15 17:42:24.861
2.992126,-185,2057,-438,187,223,-66,11327.776,5972.948,-9053.4,4740.967,,,,,2018-06-15 17:42:24.881
3.012115,-147,2082,-447,214,213,-71,11341.271,5991.922,-9009.903,4767.548,339,160,192,,2018-06-15 17:42:24.901
3.032104,-188,2111,-445,240,203,-82,11357.638,6009.299,-8962.571,4795.845,,,,,2018-06-15 17:42:24.921
3.052093,-205,2082,-432,276,198,-80,11376.124,6024.995,-8912.019,4826.444,,,,,2018-06-15 17:42:24.941
3.072113,-191,2127,-447,304,218,-71,11397.302,6039.403,-8857.457,4858.805,,,,,2018-06-15 17:42:24.961
3.092102,-236,2106,-431,335,203,-81,11420.225,6053.261,-8799.519,4892.891,,,,,2018-06-15 17:42:24.981
3.113006,-227,2071,-487,358,225,-78,11443.463,6069.066,-8738.053,4929.042,331,155,190,,2018-06-15 17:42:25.002
3.13208,-233,2074,-496,356,235,-89,11465.743,6087.358,-8675.523,4965.033,,,,,2018-06-15 17:42:25.021
3.152069,-233,2058,-503,353,255,-91,11486.099,6106.537,-8613.572,5002.153,,,,,2018-06-15 17:42:25.041
3.172058,-147,2037,-535,346,271,-80,11503.422,6126.874,-8552.613,5041.918,,,,,2018-06-15 17:42:25.061
3.192047,-219,2050,-560,335,278,-66,11516.569,6148.854,-8494.254,5083.631,,,,,2018-06-15 17:42:25.081
3.212036,-224,2037,-523,306,307,-51,11523.764,6175.315,-8440.268,5125.002,334,160,194,,2018-06-15 17:42:25.101
3.232025,-195,2037,-535,262,317,-58,11526.744,6205.212,-8390.507,5163.752,,,,,2018-06-15 17:42:25.121
3.252014,-190,2059,-557,214,318,-54,11526.423,6237.055,-8344.678,5200.238,,,,,2018-06-15 17:42:25.141
3.272034,-188,2032,-523,196,322,-56,11526.551,6267.084,-8300.395,5234.611,,,,,2018-06-15 17:42:25.161
3.291992,-212,1998,-511,190,289,-57,11525.935,6294.551,-8259.284,5267.932,,,,,2018-06-15 17:42:25.181
3.311981,-229,1992,-514,176,286,-41,11523.537,6320.966,-8221.836,5300.03,326,160,178,39777,2018-06-15 17:42:25.201
3.332001,-168,2038,-570,154,269,-32,11518.772,6345.245,-8189.162,5331.867,,,,,2018-06-15 17:42:25.221
3.35199,-230,2027,-574,132,264,-9,11510.956,6366.833,-8160.182,5367.327,,,,,2018-06-15 17:42:25.241
3.371948,-220,1922,-618,134,266,30,11503.122,6386.232,-8131.211,5404.91,,,,,2018-06-15 17:42:25.261
3.391968,-237,1980,-610,141,267,37,11496.24,6406.245,-8100.837,5441.356,,,,,2018-06-15 17:42:25.281
3.411926,-264,2034,-622,137,262,22,11488.384,6428.907,-8071.009,5475.439,311,149,175,,2018-06-15 17:42:25.301
3.431946,-238,2018,-659,115,264,8,11479.048,6453.108,-8042.657,5508.172,,,,,2018-06-15 17:42:25.321
3.451935,-156,1990,-597,117,269,11,11470.64,6474.981,-8013.362,5542.605,,,,,2018-06-15 17:42:25.341
3.471924,-223,2023,-589,126,268,20,11458.739,6496.752,-7987.203,5579.386,,,,,2018-06-15 17:42:25.361
3.491913,-200,2064,-628,97,279,53,11442.29,6519.926,-7964.814,5617.982,,,,,2018-06-15 17:42:25.381
3.511902,-312,2017,-550,60,284,66,11420.904,6547.822,-7943.752,5658.728,307,153,176,,2018-06-15 17:42:25.401
3.531891,-348,1990,-519,51,345,69,11394.319,6585.798,-7923.479,5696.548,,,,,2018-06-15 17:42:25.421
3.55188,-260,1990,-534,-9,387,33,11361.835,6635.762,-7902.571,5732.379,,,,,2018-06-15 17:42:25.441
3.571869,-161,2004,-501,-46,433,3,11326.309,6691.34,-7882.464,5765.664,,,,,2018-06-15 17:42:25.461
3.591888,-187,1978,-564,-64,432,-9,11289.485,6745.633,-7867.414,5795.101,,,,,2018-06-15 17:42:25.481
3.611847,-213,1974,-524,-102,416,-3,11252.2,6797.309,-7857.602,5820.489,314,148,185,,2018-06-15 17:42:25.501
3.631866,-231,2006,-580,-121,363,0,11217.834,6844.506,-7851.009,5840.377,,,,,2018-06-15 17:42:25.521
3.651855,-240,1990,-584,-120,316,-16,11188.972,6886.655,-7845.013,5854.237,,,,,2018-06-15 17:42:25.541
3.671814,-224,1998,-609,-113,274,-34,11164.729,6925.575,-7836.995,5865.337,,,,,2018-06-15 17:42:25.561
3.691833,-265,1970,-624,-87,257,-47,11146.587,6958.506,-7824.733,5877.225,,,,,2018-06-15 17:42:25.581
3.711822,-260,2039,-552,-34,228,-43,11130.459,6988.329,-7811.396,5890.134,310,151,190,,2018-06-15 17:42:25.601
3.731811,-278,2013,-576,-28,226,-40,11113.926,7017.7,-7796.376,5906.307,,,,,2018-06-15 17:42:25.621
3.7518,-331,2021,-592,-9,241,-25,11097.078,7048.847,-7776.786,5926.689,,,,,2018-06-15 17:42:25.641
3.771789,-306,2082,-578,12,276,-31,11078.214,7086.359,-7753.511,5947.705,,,,,2018-06-15 17:42:25.661
3.791839,-363,2072,-516,2,321,-61,11056.939,7131.556,-7724.479,5971,,,,,2018-06-15 17:42:25.681
3.811767,-381,2067,-630,7,389,-76,11031.131,7187.136,-7689.621,5997.03,301,149,177,39792,2018-06-15 17:42:25.701
3.831756,-460,1992,-594,11,449,-106,11003.971,7253.799,-7644.471,6024.326,,,,,2018-06-15 17:42:25.721
3.851745,-365,1982,-523,23,519,-156,10975.128,7331.98,-7591.207,6049.598,,,,,2018-06-15 17:42:25.741
3.871734,-381,2029,-540,13,581,-206,10939.5,7421.173,-7533.183,6077.837,,,,,2018-06-15 17:42:25.761
3.891724,-339,2033,-592,1,671,-208,10898.932,7516.147,-7470.411,6111.399,,,,,2018-06-15 17:42:25.781
3.911713,-297,1958,-600,14,707,-204,10855.822,7610.129,-7406.989,6148.903,302,153,206,,2018-06-15 17:42:25.801
3.931732,-383,1950,-564,24,716,-178,10810.234,7702.501,-7344.383,6189.167,,,,,2018-06-15 17:42:25.821
3.951721,-498,1936,-484,11,719,-162,10760.964,7797.588,-7284.976,6226.06,,,,,2018-06-15 17:42:25.841
3.97171,-492,1990,-441,-32,722,-175,10710.163,7896.803,-7227.425,6255.61,,,,,2018-06-15 17:42:25.861
3.991699,-471,1942,-657,-58,714,-206,10661.973,7997.263,-7167.399,6279.326,,,,,2018-06-15 17:42:25.881
4.011658,-441,1921,-583,-63,690,-247,10619.483,8094.153,-7107.157,6295.634,291,157,203,,2018-06-15 17:42:25.901
4.031647,-420,1991,-493,-65,646,-271,10578.231,8187.758,-7049.088,6309.314,,,,,2018-06-15 17:42:25.921
4.051666,-453,2038,-457,-75,611,-256,10533.018,8277.118,-6999.308,6323.763,,,,,2018-06-15 17:42:25.941
4.071655,-495,2004,-385,-95,616,-196,10485.546,8359.04,-6958.179,6340.263,,,,,2018-06-15 17:42:25.961
4.091644,-494,1939,-403,-110,548,-147,10436.6,8435.296,-6927.854,6353.222,,,,,2018-06-15 17:42:25.981
4.111664,-478,1944,-379,-168,517,-115,10384.583,8507.892,-6909.425,6361.721,288,143,215,,2018-06-15 17:42:26.001
4.131622,-504,2018,-325,-219,473,-77,10328.125,8576.54,-6902.754,6368.689,,,,,2018-06-15 17:42:26.021
4.151611,-528,1969,-265,-274,428,-25,10269.05,8639.537,-6907.977,6373.404,,,,,2018-06-15 17:42:26.041
4.1716,-485,1959,-194,-309,379,16,10209.282,8697.769,-6924,6372.835,,,,,2018-06-15 17:42:26.061
4.191589,-450,2026,-172,-355,340,38,10148.372,8753.174,-6948.419,6367.682,,,,,2018-06-15 17:42:26.081
4.211578,-297,2046,-117,-386,292,55,10087.408,8802.557,-6984.506,6356.988,279,137,231,,2018-06-15 17:42:26.101
4.231598,-382,1957,-196,-434,243,81,10021.347,8848.017,-7033.142,6344.725,,,,,2018-06-15 17:42:26.121
4.251556,-405,1971,-235,-498,208,148,9952.047,8888.617,-7090.951,6332.701,,,,,2018-06-15 17:42:26.141
4.271545,-450,1936,-178,-499,162,187,9893.738,8913.082,-7151.99,6321.027,,,,,2018-06-15 17:42:26.161
4.291565,-478,2003,-101,-433,87,212,9843.381,8930.026,-7214.361,6304.833,,,,,2018-06-15 17:42:26.181
4.311554,-380,2044,-60,-428,2,190,9799.899,8940.113,-7277.851,6285.273,270,140,240,39783,2018-06-15 17:42:26.201
4.331543,-438,1926,-180,-421,-7,207,9746.941,8952.396,-7344.411,6272.702,,,,,2018-06-15 17:42:26.221
4.351532,-523,1902,-138,-420,40,269,9695.301,8962.021,-7403.807,6269.161,,,,,2018-06-15 17:42:26.241
4.371521,-350,1927,-229,-357,60,214,9655.585,8971.173,-7450.586,6261.942,,,,,2018-06-15 17:42:26.261
4.39151,-402,2020,13,-272,19,165,9625.09,8971.037,-7486.26,6266.536,,,,,2018-06-15 17:42:26.281
4.411499,-504,2026,-119,-163,54,203,9590.079,8971.867,-7518.28,6280.674,270,152,261,,2018-06-15 17:42:26.300
4.431488,-603,2029,-225,-158,96,212,9554.484,8981.808,-7536.473,6298.886,,,,,2018-06-15 17:42:26.320
4.451507,-585,1933,-359,-115,169,132,9528.515,8999.049,-7530.44,6320.792,,,,,2018-06-15 17:42:26.341
4.471466,-627,1901,-374,22,229,26,9521.313,9015.529,-7492.961,6352.621,,,,,2018-06-15 17:42:26.360
4.491455,-562,1997,-303,236,238,-85,9533.412,9028.588,-7425.709,6394.758,,,,,2018-06-15 17:42:26.380
4.511444,-432,2086,-185,394,276,-155,9554.283,9038.086,-7344.656,6443.61,266,146,278,,2018-06-15 17:42:26.400
4.531463,-336,2041,-306,453,296,-167,9569.366,9048.833,-7265.691,6495.461,,,,,2018-06-15 17:42:26.420
4.551453,-410,2046,-349,412,304,-129,9578.65,9059.256,-7191.57,6549.512,,,,,2018-06-15 17:42:26.440
4.571442,-562,2036,-366,395,319,-103,9586.599,9069.694,-7118.265,6603.294,,,,,2018-06-15 17:42:26.460
4.5914,-514,2094,-409,398,324,-109,9595.22,9081.503,-7041.589,6656.538,,,,,2018-06-15 17:42:26.480
4.61142,-460,2136,-414,407,324,-127,9604.767,9091.901,-6965.993,6707.918,279,149,280,,2018-06-15 17:42:26.500
4.631409,-470,2144,-448,399,306,-117,9613.38,9098.747,-6896.755,6757.657,,,,,2018-06-15 17:42:26.520
4.651398,-490,2091,-428,375,269,-90,9623.153,9102.936,-6832.119,6803.606,,,,,2018-06-15 17:42:26.540
4.671356,-501,2031,-359,354,240,-94,9632.321,9108.09,-6772.235,6843.489,,,,,2018-06-15 17:42:26.560
4.691376,-535,2209,-303,301,233,-97,9633.545,9119.757,-6719.631,6877.996,,,,,2018-06-15 17:42:26.580
4.711365,-528,2229,-352,222,253,-88,9626.727,9136.94,-6671.658,6911.357,276,158,278,,2018-06-15 17:42:26.600
4.731354,-557,2129,-433,200,293,-65,9612.042,9157.938,-6623.788,6949.94,,,,,2018-06-15 17:42:26.620
4.751343,-547,2052,-407,190,351,-40,9593.097,9181.705,-6573.808,6992.084,,,,,2018-06-15 17:42:26.640
4.771332,-498,2070,-383,190,375,-27,9569.958,9205.785,-6525.469,7037.265,,,,,2018-06-15 17:42:26.660
4.791321,-518,2066,-366,178,394,5,9539.044,9230.896,-6480.266,7087.932,,,,,2018-06-15 17:42:26.680
4.81131,-479,2081,-400,165,430,55,9502.395,9256.377,-6436.292,7143.776,279,140,270,39818,2018-06-15 17:42:26.700
4.831299,-448,1998,-405,168,452,81,9461.328,9281.262,-6392.974,7204.634,,,,,2018-06-15 17:42:26.720
4.851288,-444,1991,-372,168,467,112,9417.803,9304.693,-6352.525,7266.948,,,,,2018-06-15 17:42:26.740
4.871277,-376,1972,-329,167,461,132,9374.253,9324.259,-6317.119,7328.779,,,,,2018-06-15 17:42:26.760
4.891296,-427,1994,-324,154,426,156,9326.182,9344.455,-6289.248,7388.116,,,,,2018-06-15 17:42:26.780
4.911285,-532,2012,-286,108,432,174,9276.998,9367.828,-6261.138,7444.104,273,141,267,,2018-06-15 17:42:26.800
4.931244,-519,2035,-283,84,449,141,9225.944,9402.136,-6225.442,7494.07,,,,,2018-06-15 17:42:26.820
4.951263,-386,2088,-202,66,503,75,9172.296,9445.574,-6180.809,7542.091,,,,,2018-06-15 17:42:26.840
4.971252,-338,2057,-250,60,561,33,9114.499,9493.876,-6134.354,7589.292,,,,,2018-06-15 17:42:26.860
4.991241,-423,2035,-214,40,570,35,9054.951,9542.472,-6089.458,7635.641,,,,,2018-06-15 17:42:26.880
5.011291,-465,1943,-332,33,573,37,8997.518,9591.287,-6041.452,7680.375,262,152,275,,2018-06-15 17:42:26.900
5.031219,-457,1997,-292,44,563,11,8947.273,9637.45,-5991.06,7720.653,,,,,2018-06-15 17:42:26.920
5.051208,-446,2039,-271,53,527,-21,8904.102,9683.103,-5938.904,7753.666,,,,,2018-06-15 17:42:26.940
5.071197,-437,1996,-276,53,482,-62,8862.306,9726.423,-5887.25,7786.652,,,,,2018-06-15 17:42:26.960
5.091186,-469,2014,-253,73,488,-65,8823.223,9766.9,-5828.464,7824.502,,,,,2018-06-15 17:42:26.980
5.111175,-467,1951,-345,130,492,-79,8790.134,9803.795,-5764.594,7862.826,284,154,275,,2018-06-15 17:42:27.000
5.131164,-439,1965,-304,163,482,-96,8759.115,9838.283,-5697.524,7903.147,,,,,2018-06-15 17:42:27.020
5.151153,-413,1978,-225,183,476,-99,8731.601,9867.962,-5633.121,7942.66,,,,,2018-06-15 17:42:27.040
5.171142,-401,1942,-203,190,437,-86,8706.227,9893.63,-5575.959,7978.835,,,,,2018-06-15 17:42:27.060
5.191131,-522,2071,-273,161,371,-88,8683.775,9913.862,-5525.607,8013.145,,,,,2018-06-15 17:42:27.080
5.211151,-539,1983,-304,165,334,-52,8664.857,9930.111,-5476.192,8047.353,282,147,287,,2018-06-15 17:42:27.100
5.231109,-573,1920,-355,183,320,-60,8650.372,9945.702,-5425.009,8078.29,,,,,2018-06-15 17:42:27.120
5.251129,-589,1924,-315,185,291,-91,8640.638,9960.189,-5372.677,8105.786,,,,,2018-06-15 17:42:27.140
5.271118,-578,1925,-354,185,287,-105,8631.293,9974.179,-5318.109,8134.475,,,,,2018-06-15 17:42:27.160
5.291107,-591,1912,-327,207,291,-106,8619.725,9987.676,-5259.908,8167.953,,,,,2018-06-15 17:42:27.180
5.311096,-582,1849,-327,223,332,-89,8601.241,10003.656,-5200.828,8205.627,274,145,294,39777,2018-06-15 17:42:27.200
5.331085,-547,1900,-324,225,370,-66,8577.085,10021.269,-5143.126,8245.693,,,,,2018-06-15 17:42:27.220
5.351074,-541,1927,-296,201,389,-34,8545.988,10042.246,-5088.324,8286.359,,,,,2018-06-15 17:42:27.240
5.371063,-601,1926,-298,168,414,-17,8507.275,10069.535,-5034.576,8325.815,,,,,2018-06-15 17:42:27.260
5.391052,-559,1925,-285,128,462,-7,8463.496,10101.149,-4980.901,8364.333,,,,,2018-06-15 17:42:27.280
5.411041,-594,1913,-276,113,484,-14,8416.812,10137.255,-4926.213,8400.07,274,169,298,,2018-06-15 17:42:27.300
5.43103,-569,1914,-310,83,495,-27,8369.86,10176.213,-4870.451,8432.334,,,,,2018-06-15 17:42:27.320
5.451019,-625,1938,-363,75,513,-46,8322.585,10216.521,-4811.087,8464.405,,,,,2018-06-15 17:42:27.340
5.471008,-648,1898,-413,88,520,-57,8280.636,10253.416,-4747.04,8497.033,,,,,2018-06-15 17:42:27.360
5.491028,-606,1918,-608,130,497,-85,8248.347,10282.903,-4680.719,8529.536,,,,,2018-06-15 17:42:27.380
5.511017,-686,1927,-595,163,437,-106,8224.82,10302.929,-4609.49,8566.797,274,149,308,,2018-06-15 17:42:27.400
5.530975,-700,1905,-496,249,409,-120,8207.16,10315.481,-4533.171,8609.248,,,,,2018-06-15 17:42:27.420
5.550995,-696,1994,-516,308,401,-119,8191.524,10322.273,-4455.534,8656.4,,,,,2018-06-15 17:42:27.440
5.570984,-777,1980,-491,346,390,-105,8174.544,10324.655,-4376.061,8709.986,,,,,2018-06-15 17:42:27.460
5.590973,-772,1939,-603,395,396,-85,8159.493,10324.042,-4293.193,8765.885,,,,,2018-06-15 17:42:27.480
5.610962,-745,1987,-559,408,400,-97,8144.348,10323.152,-4205.862,8823.167,272,145,310,,2018-06-15 17:42:27.500
5.630951,-642,2041,-631,415,408,-103,8127.514,10321.086,-4120.842,8881.036,,,,,2018-06-15 17:42:27.520
5.65094,-755,2025,-608,409,411,-73,8103.314,10316.75,-4043.622,8943.462,,,,,2018-06-15 17:42:27.540
5.670929,-755,1989,-655,413,407,5,8070.396,10309.84,-3972.752,9012.69,,,,,2018-06-15 17:42:27.560
5.690948,-709,2011,-686,401,436,78,8023.235,10305.548,-3907.754,9087.808,,,,,2018-06-15 17:42:27.580
5.710907,-675,1996,-610,380,492,159,7964.69,10302.118,-3849.837,9167.566,280,143,307,,2018-06-15 17:42:27.600
5.730896,-667,2043,-602,353,502,227,7897.768,10299.226,-3802.395,9248.158,,,,,2018-06-15 17:42:27.620
5.750885,-648,1985,-662,313,499,275,7832.559,10297.595,-3758.984,9322.876,,,,,2018-06-15 17:42:27.640
5.770874,-634,1983,-646,280,468,258,7771.281,10295.032,-3718.628,9392.909,,,,,2018-06-15 17:42:27.660
5.790863,-637,2017,-722,269,431,240,7710.887,10292.973,-3680.088,9459.879,,,,,2018-06-15 17:42:27.680
5.810852,-586,2009,-598,247,434,240,7649.868,10291.424,-3642.276,9525.511,274,137,301,39796,2018-06-15 17:42:27.700
5.830871,-592,2039,-643,246,438,244,7584.473,10293.61,-3604.696,9589.524,,,,,2018-06-15 17:42:27.720
5.85083,-598,2003,-612,213,465,245,7517.853,10299.195,-3565.719,9650.365,,,,,2018-06-15 17:42:27.740
5.870849,-622,2013,-595,192,473,223,7445.948,10311.362,-3527.031,9707.17,,,,,2018-06-15 17:42:27.760
5.890808,-515,2057,-672,139,513,251,7372.323,10326.352,-3485.578,9762.248,,,,,2018-06-15 17:42:27.780
5.910797,-527,1988,-670,148,527,223,7294.686,10341.361,-3440.89,9820.362,274,154,298,,2018-06-15 17:42:27.800
5.930817,-512,1995,-602,161,564,238,7208.89,10361.448,-3395.612,9878.135,,,,,2018-06-15 17:42:27.820
5.950806,-613,2044,-601,119,617,251,7112.088,10391.998,-3350.68,9931.412,,,,,2018-06-15 17:42:27.840
5.970795,-522,2078,-557,28,678,288,7002.734,10436.131,-3300.507,9979.528,,,,,2018-06-15 17:42:27.860
5.990784,-524,2091,-508,-9,778,249,6885.13,10489.23,-3239.774,10025.484,,,,,2018-06-15 17:42:27.880
6.010773,-500,2041,-521,-24,849,233,6757.957,10549.866,-3174.55,10069.161,286,159,298,,2018-06-15 17:42:27.900
6.030762,-476,2109,-516,-66,917,249,6616.907,10616.958,-3113.913,10111.168,,,,,2018-06-15 17:42:27.920
6.050751,-503,2088,-532,-135,955,323,6464.935,10688.173,-3057.163,10151.687,,,,,2018-06-15 17:42:27.940
6.07074,-558,2016,-556,-156,974,349,6307.145,10759.998,-3006.105,10190.246,,,,,2018-06-15 17:42:27.960
6.090729,-394,2035,-366,-192,981,383,6144.036,10837.31,-2952.818,10223.494,,,,,2018-06-15 17:42:27.980
6.110992,-312,2047,-371,-222,997,356,5974.047,10913.944,-2905.791,10256.14,289,157,308,,2018-06-15 17:42:28.000
6.130829,-270,2036,-324,-242,1008,414,5798.585,10990.346,-2864.06,10286.948,,,,,2018-06-15 17:42:28.020
6.150818,-373,2035,-264,-265,975,465,5619.206,11065.457,-2828.402,10315.801,,,,,2018-06-15 17:42:28.040
6.170837,-511,2019,-334,-276,982,476,5444.414,11137.322,-2796.678,10340.814,,,,,2018-06-15 17:42:28.060
6.190796,-372,2029,-286,-285,962,486,5272.152,11208.085,-2759.81,10363.499,,,,,2018-06-15 17:42:28.080
6.210815,-449,1982,-269,-273,949,444,5101.009,11278.495,-2720.471,10383.147,300,168,314,,2018-06-15 17:42:28.100
6.230865,-317,2037,-200,-276,960,430,4933.824,11346.845,-2676.839,10400.791,,,,,2018-06-15 17:42:28.120
6.250793,-323,2007,-168,-263,932,366,4770.957,11412.075,-2628.666,10417.68,,,,,2018-06-15 17:42:28.140
6.270782,-414,1940,-150,-232,952,343,4609.815,11474.76,-2573.686,10435.087,,,,,2018-06-15 17:42:28.160
6.290771,-371,2017,-145,-218,969,324,4453.985,11536.601,-2511.564,10449.705,,,,,2018-06-15 17:42:28.180
6.31076,-408,1986,-152,-232,968,265,4306.489,11600.527,-2442.634,10457.097,317,163,349,39798,2018-06-15 17:42:28.200
6.330749,-390,2024,-49,-229,945,183,4170.656,11662.229,-2365.906,10461.164,,,,,2018-06-15 17:42:28.220
6.350738,-151,1974,-81,-228,927,125,4046.132,11721.631,-2284.758,10461.715,,,,,2018-06-15 17:42:28.240
6.370727,-235,1977,-92,-194,871,46,3930.753,11775.146,-2208.018,10462.084,,,,,2018-06-15 17:42:28.260
6.390716,-250,1903,-172,-209,816,66,3822.799,11827.055,-2136.992,10458.282,,,,,2018-06-15 17:42:28.280
6.410705,-336,1902,-44,-180,747,40,3720.027,11872.597,-2070.737,10457.07,334,180,365,,2018-06-15 17:42:28.300
6.430694,-380,1936,12,-186,710,59,3624.634,11918.684,-2009.086,10450.168,,,,,2018-06-15 17:42:28.320
6.450683,-357,2018,79,-192,660,46,3535.737,11960.75,-1950.576,10443.645,,,,,2018-06-15 17:42:28.340
6.470703,-392,2054,-12,-176,620,44,3451.581,12001.405,-1896.859,10435.047,,,,,2018-06-15 17:42:28.360
6.490661,-211,1984,-6,-184,582,49,3374.291,12035.996,-1849.604,10428.968,,,,,2018-06-15 17:42:28.380
6.510651,-276,2014,105,-130,512,60,3292.711,12060.181,-1812.126,10433.681,362,176,394,,2018-06-15 17:42:28.400
6.53067,-323,1994,23,-87,524,156,3199.389,12084.64,-1785.34,10439.031,,,,,2018-06-15 17:42:28.420
6.550629,-397,1990,45,-96,530,254,3096.062,12105.122,-1763.369,10450.186,,,,,2018-06-15 17:42:28.440
6.570648,-318,2052,103,-58,566,301,2988.265,12121.175,-1738.818,10467.06,,,,,2018-06-15 17:42:28.460
6.590637,-321,2050,116,-24,584,302,2874.245,12134.919,-1710.962,10487.635,,,,,2018-06-15 17:42:28.480
6.610626,-256,2040,-18,-12,627,321,2754.927,12147.97,-1680.729,10509.413,366,174,396,,2018-06-15 17:42:28.500
6.630615,-297,1986,-20,1,654,327,2632.704,12156.04,-1646.063,10536.862,,,,,2018-06-15 17:42:28.520
6.650604,-224,1986,-17,55,680,319,2511.876,12157.142,-1604.204,10571.487,,,,,2018-06-15 17:42:28.540
6.670593,-198,2007,-18,128,697,291,2391.741,12149.357,-1554.4,10615.647,,,,,2018-06-15 17:42:28.560
6.690613,-203,2040,6,207,719,267,2272.067,12136.344,-1499.296,10664.633,,,,,2018-06-15 17:42:28.580
6.710571,-186,2040,2,238,738,251,2153.102,12121.127,-1439.039,10714.804,,,,,2018-06-15 17:42:28.600
6.73056,-182,2043,-4,244,746,227,2035.195,12105.861,-1374.623,10763.455,389,168,419,,2018-06-15 17:42:28.620
6.750549,-215,2053,-5,242,766,205,1920.523,12090.199,-1304.295,10810.778,,,,,2018-06-15 17:42:28.640
6.770569,-201,2052,-44,247,751,156,1812.491,12075.21,-1227.282,10855.109,,,,,2018-06-15 17:42:28.660
6.790558,-215,2064,-25,225,756,99,1710.431,12060.087,-1144.238,10897.471,,,,,2018-06-15 17:42:28.680
6.810516,-124,2077,-73,238,756,57,1611.338,12044.951,-1057.232,10938.027,389,168,419,39790,2018-06-15 17:42:28.700
6.830536,-151,2035,-108,231,760,36,1510.112,12027.768,-967.527,10979.603,410,174,413,,2018-06-15 17:42:28.720
6.850525,-283,2055,-141,246,778,44,1405.814,12007.964,-876.178,11022.714,,,,,2018-06-15 17:42:28.740
6.870514,-284,2079,-150,256,798,49,1302.377,11984.997,-780.752,11067.498,,,,,2018-06-15 17:42:28.760
6.890503,-285,2079,-120,291,806,19,1205.219,11958.072,-679.831,11114.19,,,,,2018-06-15 17:42:28.780
6.910492,-234,2109,-125,312,800,-30,1114.381,11930.644,-573.996,11159.025,,,,,2018-06-15 17:42:28.799
6.930481,-206,2152,-172,309,783,-70,1029.155,11901.245,-468.691,11203.435,433,185,405,,2018-06-15 17:42:28.819
6.95047,-163,2137,-159,323,750,-79,948.601,11870,-368.462,11247.352,,,,,2018-06-15 17:42:28.839
6.970459,-267,2141,-241,311,712,-70,866.544,11838.907,-274.702,11289.347,,,,,2018-06-15 17:42:28.859
6.990448,-269,2122,-247,295,695,-34,784.827,11807.667,-185.287,11329.791,,,,,2018-06-15 17:42:28.879
7.010437,-339,2059,-286,295,683,-23,704.859,11773.491,-98.38,11371.624,,,,,2018-06-15 17:42:28.899
7.030426,-299,2064,-322,328,664,-20,629.02,11735.65,-12.634,11415.521,448,177,398,,2018-06-15 17:42:28.919
7.050415,-274,2111,-309,337,630,-37,557.897,11694.456,69.458,11461.198,,,,,2018-06-15 17:42:28.939
7.070434,-265,2119,-305,350,599,-30,487.553,11653.522,144.125,11505.32,,,,,2018-06-15 17:42:28.959
7.090393,-205,2109,-314,337,568,1,417.464,11616.861,208.074,11544.107,,,,,2018-06-15 17:42:28.979
7.110412,-237,2075,-300,288,522,50,346.16,11584.959,260.451,11577.414,,,,,2018-06-15 17:42:28.999
7.130401,-242,2125,-234,246,478,100,274.166,11560.248,301.959,11603.006,451,181,380,,2018-06-15 17:42:29.019
7.15039,-279,2119,-235,176,448,145,200.252,11545.432,336.53,11618.308,,,,,2018-06-15 17:42:29.039
7.17038,-239,2142,-277,95,439,176,121.899,11539.534,368.63,11624.278,,,,,2018-06-15 17:42:29.059
7.190369,-275,2148,-299,23,452,205,38.413,11539.516,399.777,11623.842,,,,,2018-06-15 17:42:29.079
7.210358,-187,2157,-260,-13,471,231,-49.746,11542.54,429.597,11619.732,,,,,2018-06-15 17:42:29.099
7.230347,-204,2119,-221,-38,475,254,-142.021,11548.233,455.37,11612.331,458,188,375,,2018-06-15 17:42:29.119
7.250336,-156,2120,-221,-64,483,287,-236.37,11556.741,478.498,11601.393,,,,,2018-06-15 17:42:29.139
7.270325,-152,2113,-265,-83,476,299,-330.588,11566.057,500.737,11588.862,,,,,2018-06-15 17:42:29.159
7.290314,-184,2130,-241,-86,477,301,-423.215,11574.501,522.826,11576.437,,,,,2018-06-15 17:42:29.179
7.310303,-168,2094,-272,-85,464,287,-511.809,11581.548,547.575,11564.661,458,188,375,39786,2018-06-15 17:42:29.199
7.330292,-225,2132,-280,-64,457,254,-593.9,11586.169,576.977,11554.675,458,191,378,,2018-06-15 17:42:29.219
7.350281,-188,2132,-296,-58,447,207,-669.73,11588.053,612.445,11546.811,,,,,2018-06-15 17:42:29.239
7.3703,-210,2126,-224,-44,455,154,-740.664,11586.545,653.961,11541.714,,,,,2018-06-15 17:42:29.259
7.390289,-169,2147,-221,-19,456,112,-808.181,11584.454,699.866,11536.589,,,,,2018-06-15 17:42:29.279
7.410248,-104,2142,-229,-21,461,83,-875.742,11582.133,748.351,11530.945,,,,,2018-06-15 17:42:29.299
7.430267,-147,2175,-253,-23,473,82,-945.509,11580.09,798.29,11524.135,478,200,373,,2018-06-15 17:42:29.319
7.450317,-162,2116,-253,-28,493,89,-1018.914,11577.641,849.213,11516.697,,,,,2018-06-15 17:42:29.339
7.470215,-55,2101,-239,-34,510,106,-1097.754,11575.595,899.439,11507.692,,,,,2018-06-15 17:42:29.359
7.490234,-96,2051,-214,-40,529,134,-1181.668,11574.457,946.68,11496.731,,,,,2018-06-15 17:42:29.379
7.510223,-77,2046,-198,-44,534,165,-1268.392,11574.451,990.918,11483.761,,,,,2018-06-15 17:42:29.399
7.530212,-18,2101,-175,-55,533,183,-1358.086,11577.591,1034.261,11466.504,480,191,371,,2018-06-15 17:42:29.419
7.550201,-16,2105,-115,-87,544,203,-1451.747,11583.792,1076.563,11444.852,,,,,2018-06-15 17:42:29.439
7.57019,-20,2093,-142,-117,554,229,-1547.353,11592.452,1117.555,11419.599,,,,,2018-06-15 17:42:29.459
7.590179,-14,2009,-114,-130,556,245,-1642.98,11602.371,1158.919,11392.012,,,,,2018-06-15 17:42:29.479
7.610168,-17,2004,-204,-144,561,234,-1737.209,11611.857,1204.079,11363.648,,,,,2018-06-15 17:42:29.499
7.630157,-78,1998,-203,-143,571,205,-1826.699,11615.606,1253.837,11340.379,485,186,371,,2018-06-15 17:42:29.519
7.650146,-64,2023,-131,-94,565,154,-1908.642,11612.538,1309.265,11323.749,,,,,2018-06-15 17:42:29.539
7.670135,59,2106,-79,-48,553,90,-1982.476,11604.273,1367.193,11312.686,,,,,2018-06-15 17:42:29.559
7.690124,37,2105,-17,-20,532,67,-2053.934,11597.174,1422.601,11300.378,,,,,2018-06-15 17:42:29.579
7.710113,38,2069,-156,-39,511,62,-2124.089,11591.626,1477.845,11286.003,,,,,2018-06-15 17:42:29.599
7.730133,-36,2032,-209,-43,514,64,-2194.119,11580.618,1534.373,11276.359,507,183,373,,2018-06-15 17:42:29.619
7.750091,40,1979,-161,7,523,46,-2263.551,11561.469,1593.987,11274.015,,,,,2018-06-15 17:42:29.639
7.770111,-27,2002,-219,77,539,18,-2331.588,11534.132,1656.348,11279.159,,,,,2018-06-15 17:42:29.659
7.790069,58,1979,-215,139,542,-10,-2398.41,11496.297,1719.025,11294.386,,,,,2018-06-15 17:42:29.679
7.810089,41,2050,-201,207,536,-24,-2464.706,11452.93,1778.334,11314.971,507,183,373,39802,2018-06-15 17:42:29.699
7.830078,151,2007,-164,255,518,-14,-2532.477,11404.661,1831.391,11340.269,520,189,365,,2018-06-15 17:42:29.719
7.850067,139,2001,-203,289,496,16,-2602.711,11355.594,1877.277,11366.074,,,,,2018-06-15 17:42:29.739
7.870056,85,1938,-268,309,481,55,-2673.092,11303.798,1914.931,11395.051,,,,,2018-06-15 17:42:29.759
7.890045,31,1974,-304,341,445,71,-2740.712,11246.532,1948.598,11429.891,,,,,2018-06-15 17:42:29.779
7.910034,15,1983,-256,389,419,59,-2806.157,11183.854,1984.076,11469.34,,,,,2018-06-15 17:42:29.799
7.930023,79,2048,-234,416,437,44,-2869.733,11119.888,2022.939,11508.948,525,189,365,,2018-06-15 17:42:29.819
7.950012,37,2063,-256,397,437,6,-2929.425,11056.925,2068.227,11546.46,,,,,2018-06-15 17:42:29.839
7.970001,10,2114,-328,384,454,-29,-2984.916,10996.116,2120.845,11580.723,,,,,2018-06-15 17:42:29.859
7.98999,-61,2085,-334,343,465,-72,-3034.82,10937.082,2180.75,11612.487,,,,,2018-06-15 17:42:29.879
8.01001,15,2144,-346,324,478,-119,-3078.153,10879.638,2248.705,11642.045,,,,,2018-06-15 17:42:29.899
8.029968,10,2176,-376,284,482,-173,-3118.2,10825.073,2322.712,11667.693,523,187,351,,2018-06-15 17:42:29.919
8.049988,-16,2165,-380,262,504,-189,-3158.613,10769.07,2399.22,11693.138,,,,,2018-06-15 17:42:29.939
8.069977,-54,2170,-387,266,500,-198,-3194.909,10714.391,2473.177,11718.072,,,,,2018-06-15 17:42:29.959
8.089935,28,2192,-507,255,462,-201,-3225.951,10663.362,2542.847,11741.18,,,,,2018-06-15 17:42:29.979
8.109955,-94,2144,-450,227,421,-195,-3253.722,10614.579,2603.454,11764.415,,,,,2018-06-15 17:42:29.999
8.129822,-44,2136,-481,227,368,-169,-3280.134,10569.002,2656.546,11786.226,524,203,329,,2018-06-15 17:42:30.019
8.149811,-112,2092,-467,229,327,-138,-3306.608,10523.88,2701.374,11808.992,,,,,2018-06-15 17:42:30.039
8.1698,-126,2035,-503,236,300,-111,-3330.291,10479.053,2738.783,11833.559,,,,,2018-06-15 17:42:30.059
8.189789,-99,1984,-434,242,253,-101,-3351.691,10438.563,2770.226,11855.963,,,,,2018-06-15 17:42:30.079
8.209778,-77,1929,-490,222,216,-78,-3373.767,10403.941,2795.742,11874.13,,,,,2018-06-15 17:42:30.099
8.229767,-91,1963,-500,167,205,-41,-3398.04,10375.106,2815.041,11887.87,527,199,314,,2018-06-15 17:42:30.119
8.249756,-126,1975,-447,139,190,4,-3426.639,10350.801,2831.406,11896.959,,,,,2018-06-15 17:42:30.139
8.269745,-113,2070,-499,125,190,36,-3458.725,10327.437,2847.129,11904.224,,,,,2018-06-15 17:42:30.159
8.289734,-108,1965,-476,135,214,64,-3500.954,10300.15,2863.174,11911.67,,,,,2018-06-15 17:42:30.179
8.309753,-141,1945,-521,165,253,90,-3547.319,10272.25,2880.438,11917.882,527,199,314,39786,2018-06-15 17:42:30.199
8.329742,-141,1929,-469,152,280,106,-3600.083,10243.096,2900.233,11922.351,514,198,305,,2018-06-15 17:42:30.219
8.349701,-151,1945,-475,148,315,125,-3657.93,10214.813,2925.075,11922.941,,,,,2018-06-15 17:42:30.239
8.36972,-65,1979,-440,126,362,134,-3720.197,10189.561,2955.907,11917.677,,,,,2018-06-15 17:42:30.259
8.389679,-118,1987,-460,88,404,139,-3788.552,10168.206,2990.477,11905.752,,,,,2018-06-15 17:42:30.279
8.409698,-111,2022,-500,50,446,154,-3857.931,10151.657,3032.5,11886.951,,,,,2018-06-15 17:42:30.299
8.429687,-86,2054,-482,-7,473,150,-3927.778,10141.288,3081.022,11860.42,520,194,311,,2018-06-15 17:42:30.319
8.449676,-134,2079,-502,-76,492,148,-3995.884,10133.535,3136.185,11829.799,,,,,2018-06-15 17:42:30.339
8.469665,-119,2151,-487,-94,527,115,-4061.766,10126.255,3199.421,11796.616,,,,,2018-06-15 17:42:30.359
8.489654,-177,2138,-471,-120,546,78,-4121.994,10118.98,3269.178,11762.794,,,,,2018-06-15 17:42:30.379
8.509643,-81,2081,-518,-137,558,36,-4176.874,10114.097,3345.326,11726.166,,,,,2018-06-15 17:42:30.399
8.529632,-106,2119,-467,-176,559,0,-4226.997,10110.713,3425.902,11687.797,518,185,295,,2018-06-15 17:42:30.419
8.549621,-147,2088,-519,-195,570,-18,-4277.532,10108.086,3509.648,11646.764,,,,,2018-06-15 17:42:30.439
8.56961,-185,2138,-433,-209,561,-33,-4324.581,10104.704,3596.355,11605.801,,,,,2018-06-15 17:42:30.459
8.589599,-222,2102,-564,-211,575,-62,-4370.757,10098.439,3690.021,11564.48,,,,,2018-06-15 17:42:30.479
8.609588,-137,2118,-512,-211,625,-92,-4416.14,10087.055,3790.517,11524.602,,,,,2018-06-15 17:42:30.499
8.629578,-195,2115,-448,-206,640,-133,-4459.656,10072.389,3896.741,11485.176,531,198,289,,2018-06-15 17:42:30.519
8.649567,-266,2135,-481,-187,674,-160,-4500.629,10054.96,4009.435,11445.609,,,,,2018-06-15 17:42:30.539
8.669617,-164,2130,-475,-204,681,-192,-4541.215,10034.522,4128.171,11405.234,,,,,2018-06-15 17:42:30.559
8.689545,-140,2059,-450,-196,708,-221,-4583.3,10010.521,4250.458,11364.5,,,,,2018-06-15 17:42:30.579
8.709564,-283,2093,-464,-192,735,-234,-4625.828,9985.644,4374.414,11322.039,,,,,2018-06-15 17:42:30.599
8.729553,-190,2086,-440,-202,745,-229,-4665.211,9961.932,4499.406,11277.698,536,195,298,,2018-06-15 17:42:30.619
8.749542,-231,2068,-373,-219,741,-241,-4701.913,9939.994,4624.08,11231.289,,,,,2018-06-15 17:42:30.639
8.769531,-203,2115,-379,-239,716,-250,-4736.359,9918.814,4748.022,11183.727,,,,,2018-06-15 17:42:30.659
8.78952,-249,2145,-355,-245,730,-250,-4770.589,9897.385,4872.567,11134.485,,,,,2018-06-15 17:42:30.679
8.809509,-236,2146,-267,-244,717,-250,-4807.243,9875.179,4997.854,11082.786,536,195,298,39792,2018-06-15 17:42:30.699
8.829498,-338,2149,-274,-244,742,-235,-4843.767,9854.168,5123.266,11028.185,518,192,302,,2018-06-15 17:42:30.718
8.849487,-324,2130,-125,-260,741,-228,-4883.306,9828.573,5250.215,10973.747,,,,,2018-06-15 17:42:30.738
8.869476,-403,2110,-164,-220,759,-242,-4920.085,9802.455,5375.385,10919.95,,,,,2018-06-15 17:42:30.758
8.889465,-466,2099,-217,-257,728,-257,-4948.634,9778.473,5498.691,10867.029,,,,,2018-06-15 17:42:30.778
8.909454,-423,2038,-198,-248,701,-262,-4971.936,9753.103,5614.554,10819.845,,,,,2018-06-15 17:42:30.798
8.929443,-333,2105,-157,-206,630,-262,-4988.552,9731.244,5714.275,10779.597,512,193,298,,2018-06-15 17:42:30.818
8.949432,-341,2010,-145,-193,518,-223,-5005.115,9713.651,5795.282,10744.484,,,,,2018-06-15 17:42:30.838
8.969452,-355,2052,-127,-152,435,-157,-5023.239,9701.822,5856.551,10713.448,,,,,2018-06-15 17:42:30.858
8.98941,-379,2031,-148,-126,345,-76,-5041.495,9694.388,5901.92,10686.671,,,,,2018-06-15 17:42:30.878
9.00943,-350,2003,-91,-99,274,-34,-5058.149,9688.603,5936.796,10664.707,,,,,2018-06-15 17:42:30.898
9.029419,-421,2002,-143,-69,222,-14,-5072.873,9684.211,5962.181,10647.527,502,193,305,,2018-06-15 17:42:30.918
9.049377,-339,1955,-137,-50,166,0,-5085.454,9679.723,5978.395,10636.509,,,,,2018-06-15 17:42:30.938
9.069366,-401,2029,-131,-12,116,11,-5097.42,9674.105,5989.153,10629.838,,,,,2018-06-15 17:42:30.958
9.089386,-370,2046,-162,8,95,18,-5109.672,9668.68,5995.787,10625.151,,,,,2018-06-15 17:42:30.978
9.109375,-367,2054,-168,19,83,34,-5123.256,9665.005,5999.218,10620.016,,,,,2018-06-15 17:42:30.998
9.129364,-412,2054,-79,8,70,55,-5137.635,9663.933,6002.13,10612.397,502,198,303,,2018-06-15 17:42:31.018
9.149353,-445,2067,-53,-9,83,61,-5152.116,9663.58,6010.442,10600.987,,,,,2018-06-15 17:42:31.038
9.169342,-435,2033,-111,-35,120,48,-5170.08,9659.851,6028.266,10585.509,,,,,2018-06-15 17:42:31.058
9.189331,-409,2073,-78,-39,193,27,-5194.872,9651.074,6056.312,10565.349,,,,,2018-06-15 17:42:31.078
9.20932,-430,2017,-65,-39,270,23,-5226.728,9638.225,6094.052,10539.634,,,,,2018-06-15 17:42:31.098
9.229309,-424,2022,-83,-38,352,11,-5264.156,9621.148,6142.783,10508.274,514,198,308,,2018-06-15 17:42:31.118
9.249298,-378,2020,-78,-55,433,-5,-5306.285,9598.598,6202.407,10472.623,,,,,2018-06-15 17:42:31.138
9.269287,-300,1960,14,-59,490,-36,-5350.755,9570.276,6268.567,10436.461,,,,,2018-06-15 17:42:31.158
9.289368,-365,1963,-69,-41,531,-58,-5393.736,9541.13,6336.194,10400.121,,,,,2018-06-15 17:42:31.178
9.309265,-290,1980,-61,-52,524,-61,-5435.301,9511.889,6401.76,10365.055,,,,,2018-06-15 17:42:31.198
9.329285,-339,1951,-70,-41,511,-58,-5479.189,9481.547,6465.232,10330.293,513,192,299,39775,2018-06-15 17:42:31.218
9.349274,-370,1957,-105,-24,498,-48,-5522.583,9452.269,6524.026,10296.999,,,,,2018-06-15 17:42:31.238
9.369263,-409,1955,-82,-20,480,-33,-5566.726,9421.895,6579.121,10265.966,,,,,2018-06-15 17:42:31.258
9.389221,-280,1941,-48,7,457,-22,-5609.788,9393.08,6628.12,10237.372,,,,,2018-06-15 17:42:31.278
9.409241,-356,2013,-56,22,426,-5,-5655.673,9365.471,6669.17,10210.726,,,,,2018-06-15 17:42:31.298
9.42923,-296,2028,-80,41,415,38,-5707.125,9339.234,6703.879,10183.362,514,203,308,,2018-06-15 17:42:31.318
9.449219,-356,2066,-4,68,409,82,-5766.433,9312.004,6734.027,10154.956,,,,,2018-06-15 17:42:31.338
9.469208,-291,2046,-53,88,424,124,-5828.312,9286.441,6760.936,10125.115,,,,,2018-06-15 17:42:31.358
9.489197,-370,2045,21,86,414,141,-5893.141,9261.015,6788.735,10092.224,,,,,2018-06-15 17:42:31.378
9.509186,-251,2122,-15,81,442,152,-5959.131,9236.29,6817.573,10056.632,,,,,2018-06-15 17:42:31.398
9.529175,-210,2035,5,62,453,163,-6028.07,9213.126,6847.103,10016.651,514,205,308,,2018-06-15 17:42:31.418
9.549164,-337,1996,25,55,481,183,-6105.859,9187.414,6880.71,9970.013,,,,,2018-06-15 17:42:31.438
9.569153,-285,2048,-100,48,565,205,-6187.789,9157.709,6922.879,9917.5,,,,,2018-06-15 17:42:31.458
9.589142,-378,1992,-159,33,636,192,-6275.46,9119.572,6977.204,9859.312,,,,,2018-06-15 17:42:31.478
9.609161,-469,1916,-261,39,726,150,-6363.191,9068.749,7044.195,9802.16,,,,,2018-06-15 17:42:31.498
9.62915,-489,1920,-170,72,779,70,-6446.658,9003.537,7120.718,9752.319,515,202,290,,2018-06-15 17:42:31.518
9.649139,-277,1880,-160,101,807,-32,-6527.248,8927.384,7204.493,9707.088,,,,,2018-06-15 17:42:31.538
9.669098,-189,1876,-178,146,830,-89,-6610.895,8844.239,7292.693,9660.619,,,,,2018-06-15 17:42:31.558
9.689117,-250,1818,-148,152,865,-96,-6698.349,8756.294,7378.669,9615.098,,,,,2018-06-15 17:42:31.578
9.709106,-199,1872,-154,183,876,-88,-6788.225,8666.695,7459.992,9570.39,,,,,2018-06-15 17:42:31.598
9.729095,-271,1922,-51,201,872,-61,-6881.693,8577.698,7536.714,9523.589,521,191,294,,2018-06-15 17:42:31.618
9.749084,-247,1888,-31,220,884,-25,-6974.138,8491.436,7613.734,9472.244,,,,,2018-06-15 17:42:31.638
9.769073,-269,2004,19,176,879,-23,-7062.31,8409.329,7695.811,9413.655,,,,,2018-06-15 17:42:31.658
9.789062,-841,1835,568,112,904,-25,-7159.464,8320.559,7781.534,9348.45,,,,,2018-06-15 17:42:31.678
9.809051,-73,1927,-247,190,1008,-12,-7255.699,8236.356,7871.412,9273.271,,,,,2018-06-15 17:42:31.698
9.82904,690,1822,313,181,1079,66,-7384.571,8142.553,7950.822,9186.228,513,199,276,39822,2018-06-15 17:42:31.718
9.849029,-583,1936,138,324,1114,-26,-7521.283,8054.592,8016.312,9095.494,,,,,2018-06-15 17:42:31.738
9.869018,-2147,1769,-609,178,990,385,-7660.925,7951.575,8099.662,8995.198,,,,,2018-06-15 17:42:31.758
9.889068,1677,2213,241,468,1279,-97,-7791.563,7812.819,8186.263,8925.913,,,,,2018-06-15 17:42:31.778
9.909027,-1670,1653,-75,426,1359,-273,-7927.863,7680.225,8268.718,8844.595,,,,,2018-06-15 17:42:31.798
9.929016,-2228,1803,-790,472,1222,-248,-8055.451,7542.641,8354.072,8767.165,515,202,264,,2018-06-15 17:42:31.818
9.949005,-1638,1890,-515,262,1237,40,-8180.483,7392.182,8445.121,8691.99,,,,,2018-06-15 17:42:31.838
9.968994,-546,2088,-247,332,1247,56,-8299.421,7238.695,8542.104,8613.291,,,,,2018-06-15 17:42:31.858
9.988983,-531,2131,-67,260,1263,97,-8429.333,7097.741,8631.513,8514.742,,,,,2018-06-15 17:42:31.878
10.008972,-2946,928,-1291,288,1281,56,-8552.431,6965.346,8725.023,8405.313,,,,,2018-06-15 17:42:31.898
10.028961,-57,2300,122,213,1322,30,-8657.313,6799.894,8833.302,8319.89,515,194,253,,2018-06-15 17:42:31.918
10.04895,531,2219,285,207,1225,-85,-8744.562,6656.757,8934.355,8236.076,,,,,2018-06-15 17:42:31.938
10.068939,340,2120,-231,141,1077,-206,-8811.212,6547.248,9027.921,8150.347,,,,,2018-06-15 17:42:31.958
10.088928,-425,2192,-219,40,944,-218,-8842.295,6479.657,9101.174,8089.001,,,,,2018-06-15 17:42:31.978
10.108917,-543,2148,-94,-123,610,-114,-8840.487,6428.812,9160.003,8065.105,,,,,2018-06-15 17:42:31.998
10.128937,-433,2086,-135,-142,226,-233,-8820.32,6405.255,9203.743,8056.128,513,194,225,,2018-06-15 17:42:32.018
10.148895,-314,2053,-43,-142,131,-199,-8784.796,6392.09,9232.08,8072.96,,,,,2018-06-15 17:42:32.038
10.168884,-404,2156,-104,-116,-126,-312,-8741.328,6397.61,9238.198,8108.693,,,,,2018-06-15 17:42:32.058
10.188873,-431,2130,-98,-49,-207,-193,-8702.159,6409.086,9223.252,8158.621,,,,,2018-06-15 17:42:32.078
10.208862,-494,2171,-170,27,-400,-184,-8658.446,6426.553,9190.021,8228.588,,,,,2018-06-15 17:42:32.098
10.228851,-528,2176,-142,94,-498,-221,-8608.841,6443.998,9146.346,8315.197,496,197,215,,2018-06-15 17:42:32.118
10.24884,-531,2237,-103,131,-607,-259,-8553.752,6461.169,9098.318,8410.865,,,,,2018-06-15 17:42:32.138
10.26886,-915,2214,-203,142,-640,-279,-8497.007,6475.057,9049.987,8509.269,,,,,2018-06-15 17:42:32.158
10.288818,-576,2161,-134,153,-632,-323,-8434.522,6483.504,9003.026,8614.172,,,,,2018-06-15 17:42:32.178
10.308838,-236,2199,-132,140,-642,-356,-8367.063,6500.967,8954.317,8716.956,,,,,2018-06-15 17:42:32.198
10.328827,-205,2154,-401,111,-685,-330,-8286.351,6534.89,8899.967,8823.697,500,195,210,39790,2018-06-15 17:42:32.218
10.348816,-500,2102,-408,-16,-811,-326,-8190.381,6600.431,8828.242,8935.858,,,,,2018-06-15 17:42:32.238
10.368805,-897,2183,-231,-79,-1076,-252,-8091.755,6673.319,8739.255,9058.209,,,,,2018-06-15 17:42:32.258
10.388794,-619,2135,-164,47,-1089,-195,-7987.467,6760.148,8634.715,9185.744,,,,,2018-06-15 17:42:32.278
10.408783,-515,2178,-189,-149,-1342,-114,-7862.424,6874.092,8521.401,9313.984,,,,,2018-06-15 17:42:32.298
10.428772,-622,2128,-173,-90,-1333,-109,-7751.083,6991.057,8396.363,9433.046,490,193,217,,2018-06-15 17:42:32.318
10.448761,-578,2055,-169,-90,-1307,-20,-7643.879,7110.401,8272.027,9540.561,,,,,2018-06-15 17:42:32.338
10.46875,-586,2110,-263,-106,-1320,50,-7538.874,7232.789,8145.562,9640.404,,,,,2018-06-15 17:42:32.358
10.488739,-605,2057,-179,-146,-1295,68,-7444.678,7347.615,8022.174,9729.823,,,,,2018-06-15 17:42:32.378
10.508728,-745,2107,-278,-91,-1182,93,-7349.508,7452.47,7904.901,9818.013,,,,,2018-06-15 17:42:32.398
10.528747,-591,2131,-313,-94,-1167,16,-7248.54,7550.443,7796.114,9904.823,486,192,220,,2018-06-15 17:42:32.418
10.548736,-628,2082,-267,-114,-1134,-6,-7154.404,7641.249,7692.122,9984.613,,,,,2018-06-15 17:42:32.438
10.568725,-616,2084,-231,-86,-1048,33,-7066.043,7731.602,7584.672,10059.897,,,,,2018-06-15 17:42:32.458
10.588714,-621,2094,-298,-80,-1023,46,-6980.05,7817.892,7480.44,10131.037,,,,,2018-06-15 17:42:32.478
10.608703,-631,2086,-261,-95,-1008,34,-6887.028,7903.708,7380.019,10201.519,,,,,2018-06-15 17:42:32.498
10.628692,-430,2083,-302,-133,-1009,2,-6789.629,7994.543,7277.843,10269.209,497,186,231,,2018-06-15 17:42:32.518
10.648682,-494,2053,-351,-156,-1063,11,-6685.776,8096.503,7171.876,10331.827,,,,,2018-06-15 17:42:32.538
10.668671,-546,2062,-327,-226,-1082,48,-6586.767,8210.415,7059.219,10382.988,,,,,2018-06-15 17:42:32.558
10.68866,-523,2101,-327,-254,-1059,196,-6493.796,8330.611,6942.716,10424.281,,,,,2018-06-15 17:42:32.578
10.708649,-381,2183,-238,-296,-1070,223,-6397.708,8453.286,6826.136,10461.863,,,,,2018-06-15 17:42:32.598
10.728638,-512,2144,-321,-315,-1060,203,-6303.77,8575.646,6710.325,10494.177,501,194,246,,2018-06-15 17:42:32.618
10.748627,-442,2175,-269,-317,-1057,236,-6212.059,8695.833,6592.208,10524.782,,,,,2018-06-15 17:42:32.638
10.768646,-301,2121,-280,-307,-1039,256,-6121.349,8817.929,6475.222,10548.94,,,,,2018-06-15 17:42:32.658
10.788605,-318,2028,-263,-338,-1018,258,-6033.512,8939.389,6357.638,10568.819,,,,,2018-06-15 17:42:32.678
10.808594,-440,1963,-281,-348,-1031,262,-5941.251,9058.944,6238.043,10590.529,,,,,2018-06-15 17:42:32.698
10.828583,-407,1987,-301,-323,-1051,247,-5841.569,9174.176,6116.321,10617.75,507,195,256,39777,2018-06-15 17:42:32.718
10.848572,-360,2013,-288,-303,-1069,209,-5735.04,9285.525,5994.656,10648.374,,,,,2018-06-15 17:42:32.738
10.868591,-209,2011,-289,-319,-1094,181,-5632.352,9397.777,5872.465,10672.768,,,,,2018-06-15 17:42:32.758
10.88855,-269,1948,-322,-313,-1041,220,-5546.045,9508.079,5752.825,10685.422,,,,,2018-06-15 17:42:32.778
10.908569,-419,1933,-273,-305,-947,302,-5480.248,9609.044,5635.025,10691.823,,,,,2018-06-15 17:42:32.798
10.928558,-454,1865,-240,-257,-798,374,-5420.532,9703.774,5529.8,10691.647,530,204,281,,2018-06-15 17:42:32.818
10.948547,-276,1865,-233,-288,-749,315,-5363.2,9789.908,5437.619,10689.318,,,,,2018-06-15 17:42:32.838
10.968536,-248,1942,-6,-267,-683,260,-5306.787,9866.771,5354.74,10688.64,,,,,2018-06-15 17:42:32.858
10.988525,-157,1976,-128,-240,-637,207,-5243.316,9941.015,5279.683,10688.509,,,,,2018-06-15 17:42:32.878
11.008514,-91,2023,-65,-249,-642,148,-5174.597,10012.718,5207.172,10690.641,,,,,2018-06-15 17:42:32.898
11.028503,-23,2050,-152,-264,-663,117,-5099.74,10086.486,5131.969,10693.632,534,195,301,,2018-06-15 17:42:32.918
11.048492,-18,2066,-159,-260,-715,113,-5021.857,10161.029,5049.586,10699.138,,,,,2018-06-15 17:42:32.937
11.068481,-49,2098,-162,-273,-733,134,-4935.72,10240.315,4956.444,10707.18,,,,,2018-06-15 17:42:32.957
11.08847,7,2138,-108,-251,-859,132,-4838.624,10319.382,4853.981,10722.517,,,,,2018-06-15 17:42:32.977
11.10852,15,2168,-102,-257,-911,106,-4739.187,10402.995,4748.364,10733.418,,,,,2018-06-15 17:42:32.998
11.128448,8,2153,-163,-255,-914,145,-4641.411,10490.179,4637.189,10739.895,544,180,314,,2018-06-15 17:42:33.017
11.148437,14,2091,-145,-306,-929,183,-4545.589,10576.519,4519.638,10746.31,,,,,2018-06-15 17:42:33.037
11.168457,-31,2014,-255,-266,-942,218,-4452.886,10660.677,4397.878,10752.482,,,,,2018-06-15 17:42:33.057
11.188415,-32,2100,-210,-237,-960,216,-4359.649,10732.037,4273.819,10769.714,,,,,2018-06-15 17:42:33.077
11.208404,50,2011,-207,-128,-945,183,-4262.934,10791.851,4152.751,10795.991,,,,,2018-06-15 17:42:33.097
11.228424,-56,2043,-231,-70,-948,119,-4165.496,10841.241,4034.171,10829.452,544,189,330,,2018-06-15 17:42:33.117
11.248413,-70,2052,-247,-11,-934,79,-4064.821,10880.289,3921.881,10869.72,,,,,2018-06-15 17:42:33.137
11.268402,-170,1957,-163,15,-915,20,-3961.737,10911.375,3821.327,10912.352,,,,,2018-06-15 17:42:33.157
11.288391,-140,1986,-217,43,-856,-48,-3855.111,10937.277,3733.48,10954.937,,,,,2018-06-15 17:42:33.177
11.30838,-118,2015,-229,28,-817,-111,-3749.532,10959.639,3654.322,10995.848,,,,,2018-06-15 17:42:33.197
11.328369,-144,2161,-138,37,-775,-125,-3648.291,10980.629,3582.247,11032.619,543,186,350,39792,2018-06-15 17:42:33.217
11.348358,-268,2120,-120,-7,-735,-132,-3545.986,11008.056,3515.805,11059.983,,,,,2018-06-15 17:42:33.237
11.368347,-147,2223,-106,-85,-701,-136,-3438.842,11043.375,3457.307,11077.034,,,,,2018-06-15 17:42:33.257
11.388336,-290,2227,-23,-175,-704,-168,-3331.298,11085.732,3406.658,11083.28,,,,,2018-06-15 17:42:33.277
11.408325,-200,2237,-91,-237,-655,-171,-3228.746,11134.578,3364.783,11077.456,,,,,2018-06-15 17:42:33.297
11.428314,-282,2178,-38,-315,-593,-152,-3138.232,11185.944,3327.77,11062.89,537,175,351,,2018-06-15 17:42:33.317
11.448303,-337,2204,13,-336,-502,-112,-3056.735,11239.342,3296.571,11040.906,,,,,2018-06-15 17:42:33.337
11.468292,-389,2226,51,-365,-452,-98,-2976.193,11290.799,3273.274,11017.315,,,,,2018-06-15 17:42:33.357
11.488281,-391,2178,92,-361,-436,-145,-2891.172,11339.442,3260.886,10993.645,,,,,2018-06-15 17:42:33.377
11.508301,-377,2167,166,-382,-410,-209,-2806.771,11384.978,3260.399,10968.571,,,,,2018-06-15 17:42:33.397
11.52829,-362,2078,67,-362,-311,-238,-2728.246,11426.79,3270.123,10941.977,529,188,364,,2018-06-15 17:42:33.417
11.548248,-446,1993,-79,-375,-266,-264,-2658.432,11465.734,3291.547,10911.958,,,,,2018-06-15 17:42:33.437
11.568268,-443,1875,-150,-362,-187,-279,-2590.006,11491.317,3322.591,10892.076,,,,,2018-06-15 17:42:33.457
11.588257,-444,1852,-341,-264,-144,-349,-2515.876,11499.153,3357.505,10890.474,,,,,2018-06-15 17:42:33.477
11.608246,-194,1924,-309,-114,-181,-421,-2439.275,11487.245,3382.737,10912.638,,,,,2018-06-15 17:42:33.497
11.628235,19,2111,-8,70,-247,-397,-2374.527,11463.119,3381.809,10952.502,525,182,384,,2018-06-15 17:42:33.517
11.648224,182,2227,103,182,-322,-248,-2321.946,11452.766,3347.737,10985.026,,,,,2018-06-15 17:42:33.537
11.668213,296,2205,43,90,-401,-35,-2281.915,11466.201,3275.367,11001.205,,,,,2018-06-15 17:42:33.557
11.688202,458,2112,106,-21,-513,209,-2249.935,11501.347,3163.38,11003.874,,,,,2018-06-15 17:42:33.577
11.708191,457,2115,184,-115,-654,413,-2217.785,11556.248,3013.258,10995.011,,,,,2018-06-15 17:42:33.597
11.72821,361,2174,209,-201,-803,578,-2173.187,11631.561,2830.485,10973.051,506,170,386,,2018-06-15 17:42:33.617
11.748169,137,2064,197,-325,-979,664,-2111.391,11717.865,2635.311,10941.857,,,,,2018-06-15 17:42:33.637
11.768158,163,2055,212,-402,-1089,623,-2018.075,11807.607,2441.683,10907.859,,,,,2018-06-15 17:42:33.657
11.788177,105,2052,152,-434,-1203,472,-1893.152,11892.992,2259.464,10876.716,,,,,2018-06-15 17:42:33.677
11.808136,238,2120,101,-446,-1275,308,-1744.427,11969.891,2085.304,10851.987,,,,,2018-06-15 17:42:33.697
11.828155,348,2057,-38,-382,-1351,179,-1582.746,12043.887,1901.254,10828.683,500,174,403,39783,2018-06-15 17:42:33.717
11.848144,386,2045,-200,-400,-1420,229,-1426.342,12110.37,1700.48,10809.638,,,,,2018-06-15 17:42:33.737
11.868103,487,2023,-265,-298,-1462,329,-1279.047,12161.033,1478.289,10803.861,,,,,2018-06-15 17:42:33.757
11.888122,223,2040,-424,-138,-1503,443,-1139.723,12186.679,1235.654,10821.021,,,,,2018-06-15 17:42:33.777
11.908111,-21,1949,-452,54,-1544,516,-996.152,12185.634,987.255,10861.803,,,,,2018-06-15 17:42:33.797
11.9281,-112,2047,-290,233,-1603,465,-838.757,12158.937,749.799,10923.826,508,175,416,,2018-06-15 17:42:33.817
11.948089,-339,2151,-28,418,-1575,333,-667.052,12125.672,539.685,10984.866,,,,,2018-06-15 17:42:33.837
11.968078,-270,2349,-8,338,-1506,146,-485.905,12107.486,373.276,11021.287,,,,,2018-06-15 17:42:33.857
11.988067,-267,2389,45,147,-1322,-57,-318.148,12109.123,257.262,11028.924,,,,,2018-06-15 17:42:33.877
12.008057,-423,2384,-74,-79,-1063,-194,-173.608,12131.58,173.404,11009.087,,,,,2018-06-15 17:42:33.897
12.028046,-417,2337,29,-232,-850,-180,-62.706,12160.111,119.449,10979.478,509,171,431,,2018-06-15 17:42:33.917
12.048065,-691,2200,161,-255,-554,-170,9.689,12184.714,112.393,10952.417,,,,,2018-06-15 17:42:33.937
12.068024,-632,2084,101,-222,-225,-273,68.228,12210.63,153.937,10922.802,,,,,2018-06-15 17:42:33.957
12.088013,-624,2121,-55,-240,-15,-438,138.012,12236.141,230.02,10892.214,,,,,2018-06-15 17:42:33.977
12.108002,-956,2229,-53,-236,-1,-653,235.421,12254.299,339.08,10867.253,,,,,2018-06-15 17:42:33.997
12.128021,-845,2224,-45,-157,-4,-912,361.614,12255.785,482.949,10856.664,488,169,431,,2018-06-15 17:42:34.017
12.14801,-783,2161,-184,-17,23,-1142,499.161,12243.935,650.737,10855.822,,,,,2018-06-15 17:42:34.037
12.167999,-673,2256,-234,40,64,-1244,639.832,12220.388,822.495,10863.317,,,,,2018-06-15 17:42:34.057
12.187988,-395,2238,-231,152,29,-1246,779.002,12180.766,977.856,10885.832,,,,,2018-06-15 17:42:34.077
12.207977,-247,2225,-205,246,-54,-1141,911.1,12131.488,1097.438,10919.155,,,,,2018-06-15 17:42:34.097
12.227936,-142,2028,-154,326,-187,-942,1036.656,12075.34,1170.37,10962.535,471,169,453,,2018-06-15 17:42:34.117
12.247955,-118,1885,105,352,-353,-729,1157.481,12022.356,1194.176,11006.025,,,,,2018-06-15 17:42:34.137
12.267944,269,2263,181,310,-513,-493,1271.131,11983.291,1165.704,11039.09,,,,,2018-06-15 17:42:34.157
12.287933,358,2089,430,184,-663,-248,1369.119,11959.083,1082.857,11062.039,,,,,2018-06-15 17:42:34.177
12.307922,169,2167,558,65,-800,44,1470.021,11954.788,954.891,11065.519,,,,,2018-06-15 17:42:34.197
12.327972,59,2164,633,-129,-1024,168,1623.968,11979.03,787.838,11030.88,428,165,440,39765,2018-06-15 17:42:34.217
12.3479,-99,2139,633,-471,-1417,42,1809.977,12023.904,594.792,10965.007,,,,,2018-06-15 17:42:34.237
12.367889,31,2201,397,-678,-1559,39,2034.726,12080.088,374.298,10873.21,,,,,2018-06-15 17:42:34.257
12.387878,-13,1974,307,-805,-1854,-22,2294.601,12129.668,125.036,10771.525,,,,,2018-06-15 17:42:34.277
12.407867,307,1773,-135,-820,-2076,-10,2577.399,12166.864,-155.312,10664.696,,,,,2018-06-15 17:42:34.297
12.427887,260,1716,-498,-845,-2337,66,2870.516,12176.219,-495.032,10568.358,416,160,430,,2018-06-15 17:42:34.317
12.447845,125,1725,-723,-663,-2601,354,3163.36,12129.596,-890.852,10512.272,,,,,2018-06-15 17:42:34.337
12.467865,-356,1795,-559,-310,-2836,631,3456.338,12021.618,-1312.104,10499.917,,,,,2018-06-15 17:42:34.357
12.487854,-677,1942,-590,35,-2960,741,3766.93,11880.818,-1733.806,10492.175,,,,,2018-06-15 17:42:34.377
12.507812,-718,2073,-465,114,-3050,645,4099.23,11726.936,-2138.6,10465.998,,,,,2018-06-15 17:42:34.397
12.527801,-806,2109,-345,58,-3074,465,4436.246,11581.301,-2521.471,10405.326,402,153,449,,2018-06-15 17:42:34.417
12.547821,-387,2339,-200,-101,-3023,317,4789.744,11458.991,-2893.152,10286.641,,,,,2018-06-15 17:42:34.437
12.56781,-486,2398,-58,-450,-3096,48,5122.5,11358.897,-3263.068,10125.377,,,,,2018-06-15 17:42:34.457
12.587799,-343,2419,-21,-639,-2949,207,5401.485,11269.985,-3637.883,9950.51,,,,,2018-06-15 17:42:34.477
12.607788,-613,2306,-250,-793,-2754,349,5619.927,11173.426,-4017.446,9791.145,,,,,2018-06-15 17:42:34.497
12.627777,-911,1851,-340,-690,-2387,629,5785.24,11075.985,-4335.632,9669.088,359,164,429,,2018-06-15 17:42:34.517
12.647766,-1023,1574,-723,-501,-1956,516,5940.637,10987.782,-4579.46,9562.503,,,,,2018-06-15 17:42:34.537
12.667755,-1461,1560,-866,-341,-1673,251,6113.147,10909.427,-4746.302,9461.6,,,,,2018-06-15 17:42:34.557
12.687744,-1018,1963,-570,-163,-1450,-120,6339.031,10826.486,-4840.288,9360.07,,,,,2018-06-15 17:42:34.577
12.707733,-746,2304,-351,101,-1514,-560,6573.02,10749.506,-4881.603,9265.468,,,,,2018-06-15 17:42:34.597
12.727722,-345,2263,-423,184,-1264,-703,6784.285,10681.724,-4901.963,9180.437,341,155,407,,2018-06-15 17:42:34.617
12.747711,-401,2148,-606,197,-1091,-666,6969.355,10611.907,-4915.778,9115.157,,,,,2018-06-15 17:42:34.637
12.7677,-195,1910,-665,279,-995,-522,7143.745,10523.187,-4935.476,9072.262,,,,,2018-06-15 17:42:34.657
12.78772,84,1915,-687,358,-1008,-383,7302.87,10416.735,-4984.718,9041.445,,,,,2018-06-15 17:42:34.677
12.807709,330,2105,-415,343,-1105,-133,7444.82,10283.667,-5087.459,9020.755,,,,,2018-06-15 17:42:34.697
12.827698,359,2101,-115,250,-1265,220,7559.559,10130.902,-5259.404,8999.556,319,153,393,39771,2018-06-15 17:42:34.717
12.847687,233,1955,117,56,-1478,551,7667.157,9958.453,-5498.671,8957.899,,,,,2018-06-15 17:42:34.737
12.867645,187,2196,161,-83,-1760,749,7791.264,9764.775,-5798.839,8874.361,,,,,2018-06-15 17:42:34.757
12.887665,-169,2376,330,-379,-2245,758,7945.278,9563.426,-6161.124,8711.453,,,,,2018-06-15 17:42:34.777
12.907654,-475,2529,328,-709,-2703,655,8130.577,9356.02,-6560.527,8470.744,,,,,2018-06-15 17:42:34.797
12.927643,-624,2365,382,-945,-3045,493,8334.306,9147.596,-6960.311,8176.205,290,146,365,,2018-06-15 17:42:34.817
12.947632,-403,2040,210,-1006,-3157,258,8552.308,8942.744,-7327.3,7850.57,,,,,2018-06-15 17:42:34.837
12.967621,170,1960,-250,-982,-3154,50,8771.941,8721.887,-7691.376,7500.66,,,,,2018-06-15 17:42:34.857
12.98761,287,1834,-384,-1045,-3317,80,8986.975,8447.48,-8069.226,7155.234,,,,,2018-06-15 17:42:34.877
13.007599,1,1637,-497,-859,-3454,373,9181.383,8115.086,-8445.538,6852.437,,,,,2018-06-15 17:42:34.897
13.027588,-202,1659,-551,-641,-3378,714,9356.222,7748.78,-8790.638,6601.333,306,159,338,,2018-06-15 17:42:34.917
13.047577,-286,1834,-200,-345,-3159,887,9515.132,7374.261,-9086.556,6399.411,,,,,2018-06-15 17:42:34.937
13.067566,-370,2124,49,-129,-2831,946,9642.889,7028.919,-9343.064,6225.076,,,,,2018-06-15 17:42:34.957
13.087555,-325,2432,347,-142,-2481,854,9738.871,6742.763,-9564.169,6054.059,,,,,2018-06-15 17:42:34.977
13.107544,-164,2411,368,-288,-2072,607,9790.504,6521.421,-9755.486,5906.185,,,,,2018-06-15 17:42:34.997
13.127563,-82,2207,455,-364,-1588,605,9797.44,6352.669,-9922.978,5798.596,300,160,323,,2018-06-15 17:42:35.017
13.147552,-596,2185,153,-485,-1117,578,9768.677,6243.491,-10063.982,5722.191,,,,,2018-06-15 17:42:35.037
13.167541,-569,2160,42,-528,-754,398,9743.692,6200.836,-10155.198,5649.556,,,,,2018-06-15 17:42:35.057
13.18753,-500,2210,-312,-443,-422,3,9736.841,6235.608,-10180.075,5577.869,,,,,2018-06-15 17:42:35.077
13.207519,4,2153,-364,-286,-23,-444,9763.067,6316.404,-10143.262,5507.742,,,,,2018-06-15 17:42:35.097
13.227508,19,2066,-553,-18,85,-714,9806.539,6400.57,-10073.616,5460.969,318,166,294,,2018-06-15 17:42:35.117
13.247497,-72,2106,-459,176,196,-679,9868.681,6473.527,-9974.179,5445.527,,,,,2018-06-15 17:42:35.136
13.267486,141,2098,-424,470,271,-645,9945.763,6534.682,-9853.286,5452.33,,,,,2018-06-15 17:42:35.156
13.287475,147,2021,-537,602,271,-592,10020.981,6578.806,-9738.968,5466.916,,,,,2018-06-15 17:42:35.176
13.307464,234,2034,-304,588,212,-468,10095.039,6593.959,-9645.098,5478.813,,,,,2018-06-15 17:42:35.196
13.327453,281,1911,-315,532,46,-333,10162.15,6577.383,-9584.102,5481.711,331,163,295,39761,2018-06-15 17:42:35.216
13.347442,168,1792,-65,423,-195,-156,10225.172,6513.486,-9571.373,5463.022,,,,,2018-06-15 17:42:35.236
13.367462,33,1933,205,250,-523,59,10275.975,6408.377,-9607.295,5428.844,,,,,2018-06-15 17:42:35.256
13.387421,-24,2032,239,85,-761,293,10307.574,6275.009,-9687.467,5382.062,,,,,2018-06-15 17:42:35.276
13.40744,-175,2086,273,-96,-922,443,10342.956,6116.532,-9787.868,5314.542,,,,,2018-06-15 17:42:35.296
13.427429,-272,2083,538,-60,-1174,421,10396.158,5940.86,-9895.419,5209.816,313,147,296,,2018-06-15 17:42:35.316
13.447418,-307,2099,410,-109,-1416,313,10456.932,5759.389,-10020.059,5051.322,,,,,2018-06-15 17:42:35.336
13.467407,-194,2264,302,-280,-1644,117,10529.245,5572.129,-10159.011,4828.694,,,,,2018-06-15 17:42:35.356
13.487396,-217,2235,163,-397,-1965,-63,10608.664,5363.239,-10311.205,4561.403,,,,,2018-06-15 17:42:35.376
13.507385,-179,2107,47,-451,-2223,-68,10686.875,5126.415,-10469.097,4282.99,,,,,2018-06-15 17:42:35.396
13.527374,-125,1970,-92,-441,-2281,49,10754.184,4872.941,-10620.089,4031.268,329,170,267,,2018-06-15 17:42:35.416
13.547424,-153,1974,-30,-361,-2164,224,10809.418,4616.273,-10752.078,3830.764,,,,,2018-06-15 17:42:35.436
13.567352,-223,2052,21,-228,-1880,415,10847.891,4373.111,-10865.716,3683.857,,,,,2018-06-15 17:42:35.456
13.587341,21,2109,-63,-175,-1559,542,10871.692,4153.75,-10962.484,3579.391,,,,,2018-06-15 17:42:35.476
13.60733,116,2074,-131,-133,-1308,565,10890.101,3951.48,-11039.647,3514.702,,,,,2018-06-15 17:42:35.496
13.627319,152,1975,-74,-41,-1055,647,10900.938,3764.723,-11104.327,3482.204,334,163,250,,2018-06-15 17:42:35.516
13.647308,-302,1992,-140,-26,-870,682,10900.804,3592.91,-11166.958,3463.806,,,,,2018-06-15 17:42:35.536
13.667297,175,2279,264,-68,-747,668,10884.545,3439.107,-11238.212,3440.529,,,,,2018-06-15 17:42:35.556
13.687286,35,2422,449,-260,-690,588,10845.982,3318.199,-11320.276,3411.893,,,,,2018-06-15 17:42:35.576
13.707275,-32,2386,658,-373,-568,455,10798.207,3241.757,-11396.356,3383.523,,,,,2018-06-15 17:42:35.596
13.727295,-73,2241,206,-417,-347,273,10736.336,3217.824,-11467.72,3362.071,362,171,235,,2018-06-15 17:42:35.616
13.747253,15,1877,343,-526,-89,67,10677.162,3249.22,-11518.632,3346.242,,,,,2018-06-15 17:42:35.636
13.767242,161,1840,191,-445,133,-105,10627.589,3309.616,-11548.318,3342.541,,,,,2018-06-15 17:42:35.656
13.787262,199,1745,63,-341,274,-177,10595.727,3373.559,-11556.119,3352.792,,,,,2018-06-15 17:42:35.676
13.807251,98,1835,88,-154,336,-194,10588.879,3442.54,-11536.467,3371.932,,,,,2018-06-15 17:42:35.696
13.82724,-49,2060,136,57,372,-242,10609.557,3520.883,-11488.732,3388.975,380,175,234,39740,2018-06-15 17:42:35.716
13.847229,-111,2170,183,244,379,-397,10651.139,3613.081,-11420.388,3392.498,,,,,2018-06-15 17:42:35.736
13.867218,-54,2271,128,346,389,-540,10700.975,3718.626,-11342.453,3383.069,,,,,2018-06-15 17:42:35.756
13.887207,-126,2310,70,360,371,-648,10756.998,3823.074,-11262.659,3355.447,,,,,2018-06-15 17:42:35.776
13.907196,-166,2307,55,361,273,-695,10815.951,3919.042,-11186.191,3310.722,,,,,2018-06-15 17:42:35.796
13.927185,-153,2375,-102,342,165,-720,10876.379,4006.037,-11111.354,3260.259,376,171,249,,2018-06-15 17:42:35.816
13.947174,-124,2298,-92,351,97,-679,10933.904,4074.643,-11042.924,3215.009,,,,,2018-06-15 17:42:35.836
13.967163,-120,2191,-70,334,58,-555,10987.268,4118.768,-10982.745,3182.834,,,,,2018-06-15 17:42:35.856
13.987182,-53,2169,-95,343,25,-376,11034.02,4138.914,-10932.277,3168.684,,,,,2018-06-15 17:42:35.876
14.007141,-4,2135,70,317,0,-192,11073.018,4130.702,-10894.927,3171.995,,,,,2018-06-15 17:42:35.896
14.02713,37,2101,86,279,-58,12,11102.379,4097.655,-10873.337,3186.277,365,165,250,,2018-06-15 17:42:35.916
14.04715,21,2092,170,239,-112,165,11128.347,4048.001,-10859.896,3204.942,,,,,2018-06-15 17:42:35.936
14.067139,-94,1998,123,232,-173,213,11153.26,3990.975,-10855.618,3204.354,,,,,2018-06-15 17:42:35.956
14.087128,-115,2033,199,162,-321,141,11181.075,3930.646,-10858.262,3172.878,,,,,2018-06-15 17:42:35.976
14.107117,-240,1955,208,98,-431,31,11208.897,3878.65,-10864.442,3117.054,,,,,2018-06-15 17:42:35.996
14.127106,-271,1868,265,66,-476,-87,11238.527,3835.623,-10872.122,3035.77,342,162,242,,2018-06-15 17:42:36.016
14.147095,-249,1907,259,-15,-555,-224,11263.707,3800.835,-10887.203,2930.323,,,,,2018-06-15 17:42:36.036
14.167084,-168,2052,306,-82,-618,-313,11284.269,3767.361,-10908.853,2811.515,,,,,2018-06-15 17:42:36.056
14.187073,-266,2101,261,-151,-664,-334,11295.878,3729.954,-10940.967,2687.24,,,,,2018-06-15 17:42:36.076
14.207062,-346,2089,222,-221,-677,-303,11303.493,3688.219,-10977.013,2562.949,,,,,2018-06-15 17:42:36.096
14.227051,-424,2140,246,-234,-682,-279,11306.529,3648.095,-11015.01,2441.063,354,159,226,,2018-06-15 17:42:36.116
14.24704,-405,2157,271,-260,-656,-280,11305.885,3614.697,-11052.721,2320.283,,,,,2018-06-15 17:42:36.136
14.267029,-244,2146,264,-276,-610,-301,11303.24,3586.012,-11088.464,2204.239,,,,,2018-06-15 17:42:36.156
14.287018,-159,2012,168,-263,-569,-288,11299.506,3553.405,-11122.309,2103.369,,,,,2018-06-15 17:42:36.176
14.307007,-101,1975,39,-226,-537,-186,11295.73,3503.761,-11156.954,2021.866,,,,,2018-06-15 17:42:36.196
14.326996,-109,1960,125,-194,-541,-34,11297.978,3434.578,-11187.156,1960.183,348,158,208,39730,2018-06-15 17:42:36.216
14.346985,-161,1959,154,-108,-525,100,11302.726,3356.258,-11213.371,1918.244,,,,,2018-06-15 17:42:36.236
14.367004,-321,1944,260,-65,-485,196,11306.345,3278.896,-11236.559,1894.881,,,,,2018-06-15 17:42:36.256
14.386993,-263,1904,286,-50,-368,236,11304.662,3218.201,-11257.648,1883.769,,,,,2018-06-15 17:42:36.276
14.406982,-291,1943,350,-40,-233,213,11300.872,3179.504,-11271.86,1887.231,,,,,2018-06-15 17:42:36.296
14.426941,-257,1949,347,-39,-120,141,11292.788,3164.579,-11283.291,1892.393,342,157,219,,2018-06-15 17:42:36.316
14.44696,-279,1862,247,-43,-1,79,11285.616,3169.862,-11286.871,1904.946,,,,,2018-06-15 17:42:36.336
14.466949,-334,2026,358,2,128,18,11280.182,3195.602,-11281.333,1926.805,,,,,2018-06-15 17:42:36.356
14.486938,-430,2059,209,18,225,-50,11274.278,3248.33,-11267.655,1953.045,,,,,2018-06-15 17:42:36.376
14.506927,-440,2063,171,55,378,-145,11274.403,3326.517,-11239.783,1981.119,,,,,2018-06-15 17:42:36.396
14.526916,-274,2013,140,113,465,-268,11278.594,3425.176,-11200.797,2009.743,343,158,211,,2018-06-15 17:42:36.416
14.546905,-172,2034,22,152,548,-341,11287.281,3529.433,-11153.227,2044.834,,,,,2018-06-15 17:42:36.436
14.566894,-135,1915,-3,232,553,-325,11300.304,3627.034,-11101.66,2082.383,,,,,2018-06-15 17:42:36.456
14.586883,-88,1904,-114,236,561,-281,11314.183,3713.767,-11049.133,2132.907,,,,,2018-06-15 17:42:36.476
14.606872,-136,1916,-101,273,543,-184,11334.347,3781.525,-10993.092,2195.448,,,,,2018-06-15 17:42:36.496
14.626892,-144,1982,-229,349,518,-70,11360.602,3829.271,-10935.101,2265.48,356,146,227,,2018-06-15 17:42:36.516
14.64685,-287,2066,-279,416,455,25,11395.14,3861.49,-10872.315,2338.348,,,,,2018-06-15 17:42:36.536
14.66687,-276,2198,-128,456,388,57,11438.918,3881.419,-10805.485,2400.556,,,,,2018-06-15 17:42:36.556
14.686828,-290,2255,-127,510,296,36,11484.054,3897.936,-10740.086,2451.239,,,,,2018-06-15 17:42:36.576
14.706817,-227,2199,-157,475,238,-4,11527.154,3913.755,-10679.871,2486.567,,,,,2018-06-15 17:42:36.596
14.726837,-162,2078,-310,412,163,-57,11567.891,3926.968,-10625.231,2510.521,340,147,228,,2018-06-15 17:42:36.616
14.746826,-108,2009,-332,373,103,-68,11608.75,3930.807,-10574.28,2530.953,,,,,2018-06-15 17:42:36.636
14.766876,-103,2058,-321,377,77,-19,11649.902,3920.872,-10525.678,2559.704,,,,,2018-06-15 17:42:36.656
14.786804,-190,2140,-240,397,62,81,11687.727,3899.366,-10481.222,2602.191,,,,,2018-06-15 17:42:36.676
14.806793,-241,2209,-163,381,64,183,11715.328,3875.335,-10445.662,2656.395,,,,,2018-06-15 17:42:36.696
14.826782,-189,2243,-114,318,121,256,11729.702,3857.243,-10419.871,2719.829,346,151,220,39722,2018-06-15 17:42:36.716
14.846771,-83,2281,-176,236,185,290,11730.797,3844.129,-10404.591,2791.233,,,,,2018-06-15 17:42:36.736
14.86676,-97,2267,-115,145,243,326,11722.563,3832.972,-10397.574,2866.309,,,,,2018-06-15 17:42:36.756
14.886749,-126,2103,-214,91,246,350,11708.09,3821.962,-10397.885,2938.137,,,,,2018-06-15 17:42:36.776
14.906738,-126,2082,-290,34,233,337,11691.126,3813.617,-10402.349,3000.076,,,,,2018-06-15 17:42:36.796
14.926727,-91,2183,-187,3,201,286,11677.263,3807.501,-10405.219,3051.442,340,149,207,,2018-06-15 17:42:36.816
14.946716,-91,2216,-184,2,157,225,11662.766,3804.56,-10409.835,3094.508,,,,,2018-06-15 17:42:36.836
14.966705,-102,2250,-168,-25,155,190,11645.877,3805.783,-10416.726,3133.181,,,,,2018-06-15 17:42:36.856
14.986694,-163,2225,-160,-53,178,170,11624.953,3815.253,-10423.895,3175.242,,,,,2018-06-15 17:42:36.876
15.006683,-106,2223,-102,-65,235,163,11600.034,3835.32,-10429.656,3222.924,,,,,2018-06-15 17:42:36.896
15.026672,-76,2259,-94,-72,301,143,11569.62,3865.994,-10433,3284.192,352,149,189,,2018-06-15 17:42:36.916
15.046692,-23,2237,-161,-74,417,174,11534.46,3909.47,-10432.266,3357.903,,,,,2018-06-15 17:42:36.936
15.066681,25,2202,-135,-79,524,190,11495.424,3959.412,-10427.788,3446.005,,,,,2018-06-15 17:42:36.956
15.08667,73,2079,-204,-50,603,213,11455.307,4014.365,-10416.574,3548.411,,,,,2018-06-15 17:42:36.976
15.106659,120,2007,-226,-5,688,236,11419.779,4069.392,-10396.759,3656.71,,,,,2018-06-15 17:42:36.996
15.126648,170,1938,-231,55,707,240,11389.962,4125.102,-10366.941,3770.181,347,157,205,,2018-06-15 17:42:37.016
15.146637,42,1955,-230,112,707,229,11366.573,4179.505,-10330.045,3880.508,,,,,2018-06-15 17:42:37.036
15.166626,30,2072,-145,159,681,190,11351.551,4231.821,-10288.102,3977.987,,,,,2018-06-15 17:42:37.056
15.186615,17,2260,-32,190,623,124,11342.717,4281.646,-10247.052,4055.073,,,,,2018-06-15 17:42:37.076
15.206604,-10,2339,-13,172,520,44,11333.331,4333.53,-10212.976,4111.773,,,,,2018-06-15 17:42:37.096
15.226593,-33,2269,-32,90,445,-31,11321.55,4389.019,-10186.568,4150.696,353,153,215,,2018-06-15 17:42:37.116
15.246582,-24,2120,-39,24,402,-93,11308.032,4447.263,-10166.065,4175.74,,,,,2018-06-15 17:42:37.136
15.266601,-8,1977,-182,-21,355,-140,11293.942,4505.859,-10149.048,4192.417,,,,,2018-06-15 17:42:37.156
15.28656,-63,1918,-291,-54,325,-161,11282.672,4561.253,-10131.253,4205.879,,,,,2018-06-15 17:42:37.176
15.306549,-72,1946,-281,-12,297,-162,11278.899,4612.085,-10106.2,4220.813,,,,,2018-06-15 17:42:37.196
15.326568,-36,1991,-207,53,302,-152,11282.178,4658.482,-10071.475,4244.034,346,163,222,39718,2018-06-15 17:42:37.216
15.346527,-97,2035,-201,148,330,-127,11287.312,4704.527,-10030.513,4276.475,,,,,2018-06-15 17:42:37.236
15.366516,-58,2077,-105,165,353,-106,11289.326,4752.838,-9988.9,4314.97,,,,,2018-06-15 17:42:37.256
15.386536,-94,2058,-94,152,402,-86,11282.572,4807.154,-9950.964,4359.883,,,,,2018-06-15 17:42:37.276
15.406525,-154,1999,-65,99,458,-60,11266.446,4867.18,-9919.059,4407.431,,,,,2018-06-15 17:42:37.296
15.426514,-142,2047,-115,34,499,-49,11240.413,4936.309,-9891.145,4459.444,341,158,222,,2018-06-15 17:42:37.316
15.446503,-97,2058,-57,-15,566,-44,11209.513,5010.543,-9862.968,4516.477,,,,,2018-06-15 17:42:37.336
15.466492,-134,1978,-56,-6,599,-33,11176.313,5085.711,-9834.099,4577.281,,,,,2018-06-15 17:42:37.355
15.486481,-119,1982,-68,-7,609,-11,11140.367,5163.202,-9805.958,4638.122,,,,,2018-06-15 17:42:37.375
15.50647,-165,2051,-18,-34,610,-30,11104.019,5240.984,-9778.317,4696.04,,,,,2018-06-15 17:42:37.395
15.526459,-189,2141,92,-35,618,-37,11064.715,5322.569,-9750.347,4754.839,326,151,222,,2018-06-15 17:42:37.415
15.546448,-232,2099,119,-52,627,-47,11023.849,5409.541,-9720.248,4812.881,,,,,2018-06-15 17:42:37.435
15.566437,-160,2001,9,-48,669,-71,10986.339,5497.489,-9687.089,4865.562,,,,,2018-06-15 17:42:37.455
15.586426,5,1931,-105,-20,624,-109,10956.182,5578.143,-9649.366,4916.457,,,,,2018-06-15 17:42:37.475
15.606415,113,1897,-155,27,605,-95,10931.903,5646.943,-9607.094,4974.405,,,,,2018-06-15 17:42:37.495
15.626434,-38,1965,-212,108,544,-42,10914.496,5700.158,-9560.936,5040.425,328,162,231,,2018-06-15 17:42:37.515
15.646393,-96,2147,-153,176,531,22,10906.601,5740.65,-9510.376,5106.775,,,,,2018-06-15 17:42:37.535
15.666382,-99,2221,-130,258,463,24,10908.914,5772.541,-9454.178,5169.846,,,,,2018-06-15 17:42:37.555
15.686401,-27,2248,-77,302,413,7,10915.424,5798.042,-9398.694,5228.404,,,,,2018-06-15 17:42:37.575
15.70639,42,2157,-207,304,367,12,10920.92,5818.687,-9344.627,5290.535,,,,,2018-06-15 17:42:37.595
15.726379,37,1985,-357,322,368,56,10930.474,5828.234,-9287.83,5359.856,322,158,236,,2018-06-15 17:42:37.615
15.746368,-43,1862,-448,398,342,108,10948.077,5825.673,-9225.535,5433.791,,,,,2018-06-15 17:42:37.635
15.766357,-31,1941,-405,473,299,126,10975.997,5813.35,-9156.41,5507.089,,,,,2018-06-15 17:42:37.655
15.786346,50,2200,-285,544,247,115,11011.521,5792.184,-9088.936,5569.89,,,,,2018-06-15 17:42:37.675
15.806335,-61,2375,-269,517,152,89,11041.712,5773.981,-9032.127,5621.196,,,,,2018-06-15 17:42:37.695
15.826324,-78,2342,-413,419,128,51,11066.802,5764.164,-8980.833,5663.954,316,152,233,39714,2018-06-15 17:42:37.715
15.846313,-71,2385,-416,367,165,27,11089.189,5760.571,-8926.138,5710.096,,,,,2018-06-15 17:42:37.735
15.866302,-18,2269,-506,373,213,20,11110.323,5760.946,-8869.62,5756.517,,,,,2018-06-15 17:42:37.755
15.886291,-81,2137,-452,371,238,18,11129.04,5762.519,-8816.075,5800.87,,,,,2018-06-15 17:42:37.775
15.90628,-26,2099,-533,347,196,8,11146.816,5765.472,-8763.707,5843.003,,,,,2018-06-15 17:42:37.795
15.926269,-43,2141,-581,315,220,4,11158.89,5773.097,-8710.627,5891.598,325,157,221,,2018-06-15 17:42:37.815
15.946258,-26,1994,-434,309,276,31,11163.845,5784.578,-8659.258,5946.418,,,,,2018-06-15 17:42:37.835
15.966247,-45,2083,-540,299,336,75,11160.617,5805.127,-8609.874,6003.884,,,,,2018-06-15 17:42:37.855
15.986297,-120,2135,-498,225,368,59,11152.9,5834.128,-8560.168,6060.916,,,,,2018-06-15 17:42:37.875
16.006256,-127,2093,-477,212,422,30,11143.258,5873.243,-8507.709,6114.501,,,,,2018-06-15 17:42:37.895
16.026245,-104,2023,-351,196,447,-19,11131.961,5919.194,-8457.236,6160.614,328,147,214,,2018-06-15 17:42:37.915
16.046234,-128,2070,-346,135,448,-48,11112.662,5974.55,-8416.687,6197.443,,,,,2018-06-15 17:42:37.935
16.066223,-135,2101,-242,11,447,-86,11084.549,6040.577,-8389.701,6220.334,,,,,2018-06-15 17:42:37.955
16.086212,-203,2158,-190,-112,434,-120,11047.77,6118.658,-8371.406,6234.083,,,,,2018-06-15 17:42:37.975
16.106201,-280,2179,-218,-200,477,-152,11006.052,6209.14,-8353.561,6242.343,,,,,2018-06-15 17:42:37.995
16.12619,-250,2095,-191,-226,518,-203,10965.534,6309.21,-8324.876,6251.624,317,163,213,,2018-06-15 17:42:38.015
16.146179,-176,1943,-228,-164,583,-245,10930.207,6410.98,-8279.669,6269.961,,,,,2018-06-15 17:42:38.035
16.166168,-109,1795,-242,-80,624,-246,10896.425,6503.906,-8231.801,6296.032,,,,,2018-06-15 17:42:38.055
16.186157,-71,1777,-277,-49,612,-177,10859.636,6585.7,-8192.633,6325.588,,,,,2018-06-15 17:42:38.075
16.206146,-140,1968,-217,-73,536,-119,10825.376,6651.829,-8162.235,6354.347,,,,,2018-06-15 17:42:38.095
16.226135,-289,2154,-74,-52,446,-62,10792.612,6707.7,-8138.01,6382.359,317,141,213,,2018-06-15 17:42:38.115
16.246155,-295,2311,-94,-60,405,-39,10759.711,6763.835,-8115.284,6407.553,,,,,2018-06-15 17:42:38.135
16.266113,-272,2177,-167,-41,423,-55,10731.903,6820.48,-8075.41,6444.415,,,,,2018-06-15 17:42:38.155
16.286102,-142,1968,-254,97,499,-62,10711.937,6872.789,-8019.383,6491.85,,,,,2018-06-15 17:42:38.175
16.306122,-77,1826,-448,183,514,-64,10694.89,6919.06,-7958.413,6545.611,,,,,2018-06-15 17:42:38.195
16.32608,-118,1863,-474,222,491,-30,10683.417,6952.179,-7895.041,6605.722,303,149,235,39706,2018-06-15 17:42:38.215
16.346069,-191,2050,-444,297,448,11,10679.024,6971.761,-7831.501,6667.534,,,,,2018-06-15 17:42:38.235
16.366058,-190,2228,-475,340,375,28,10680.319,6983.537,-7766.307,6729.108,,,,,2018-06-15 17:42:38.255
16.386078,-166,2194,-564,387,355,25,10686.979,6982.962,-7697.123,6798.267,,,,,2018-06-15 17:42:38.275
16.406067,-98,2091,-646,490,335,75,10700.64,6971.179,-7617.614,6877.96,,,,,2018-06-15 17:42:38.295
16.426056,-81,2180,-669,577,334,103,10715.289,6953.674,-7537.294,6960.864,303,149,240,,2018-06-15 17:42:38.315
16.446045,-46,2353,-716,558,306,97,10726.898,6932.737,-7469.325,7036.72,,,,,2018-06-15 17:42:38.335
16.466034,-146,2267,-721,470,266,125,10731.046,6910.484,-7417.043,7107.233,,,,,2018-06-15 17:42:38.355
16.486023,-165,2205,-686,402,225,157,10738.097,6888.099,-7363.263,7173.921,,,,,2018-06-15 17:42:38.375
16.506012,-142,2144,-734,457,192,163,10747.897,6865.903,-7304.068,7240.725,,,,,2018-06-15 17:42:38.395
16.526001,-135,1934,-706,457,229,112,10757.216,6842.711,-7244.49,7308.378,300,143,248,,2018-06-15 17:42:38.415
16.54599,-139,1939,-692,427,214,135,10757.789,6827.865,-7200.21,7364.961,,,,,2018-06-15 17:42:38.435
16.565979,-106,2028,-594,271,198,150,10744.565,6823.099,-7182.043,7406.303,,,,,2018-06-15 17:42:38.455
16.585968,-172,2159,-488,55,159,152,10714.936,6836.886,-7187.54,7431.138,,,,,2018-06-15 17:42:38.475
16.605957,-234,2246,-460,-143,178,145,10669.053,6870.816,-7206.394,7447.583,,,,,2018-06-15 17:42:38.495
16.625946,-175,2212,-421,-281,242,128,10615.057,6918.494,-7228.582,7459.091,295,148,215,,2018-06-15 17:42:38.515
16.645935,-145,2056,-382,-321,298,99,10556.961,6979.965,-7246.756,7466.633,,,,,2018-06-15 17:42:38.535
16.665954,-137,1903,-330,-366,361,39,10495.836,7052.054,-7261.21,7471.024,,,,,2018-06-15 17:42:38.555
16.685913,-85,1844,-345,-390,397,15,10432.705,7129.631,-7276.756,7470.694,,,,,2018-06-15 17:42:38.575
16.705932,-89,1881,-362,-443,390,-4,10367.534,7207.495,-7302.765,7461.32,,,,,2018-06-15 17:42:38.595
16.725921,-129,1842,-281,-515,327,-15,10306.198,7279.003,-7339.026,7441.271,295,153,215,,2018-06-15 17:42:38.615
16.745911,-118,1932,-203,-513,254,-24,10250.847,7343.727,-7375.011,7418.521,,,,,2018-06-15 17:42:38.635
16.7659,-101,1985,-223,-482,202,-2,10199.599,7401.034,-7411.56,7395.747,,,,,2018-06-15 17:42:38.655
16.785889,-89,1890,-199,-458,184,-36,10154.375,7450.63,-7448.499,7371.03,,,,,2018-06-15 17:42:38.675
16.805878,-188,1955,-253,-421,124,-15,10114.595,7495.503,-7484.168,7344.048,,,,,2018-06-15 17:42:38.695
16.825867,-258,1894,-278,-399,82,-22,10083.414,7533.828,-7516.222,7314.919,299,152,242,39728,2018-06-15 17:42:38.715
16.845856,-299,1932,-342,-347,52,-63,10062.992,7569.58,-7536.272,7285.443,,,,,2018-06-15 17:42:38.735
16.865845,-238,1872,-506,-259,32,-107,10054.094,7598.718,-7544.006,7259.344,,,,,2018-06-15 17:42:38.755
16.885864,-246,1885,-582,-165,50,-136,10053.674,7620.535,-7536.579,7244.756,,,,,2018-06-15 17:42:38.775
16.905853,-204,1991,-593,-30,61,-126,10061.73,7630.673,-7517.566,7242.653,,,,,2018-06-15 17:42:38.795
16.925812,-259,2189,-476,77,55,-95,10073.03,7630.946,-7494.691,7250.363,299,154,247,,2018-06-15 17:42:38.815
16.945801,-284,2314,-490,141,45,-53,10084,7623.491,-7473.747,7264.561,,,,,2018-06-15 17:42:38.835
16.96582,-280,2270,-538,159,35,-3,10092.297,7612.592,-7452.979,7285.775,,,,,2018-06-15 17:42:38.855
16.985779,-134,2107,-657,185,60,38,10097.618,7596.349,-7432.264,7316.451,,,,,2018-06-15 17:42:38.875
17.005768,-85,1949,-743,207,57,100,10099.929,7568.729,-7416.992,7357.27,,,,,2018-06-15 17:42:38.895
17.025757,-120,1963,-708,238,36,200,10095.643,7531.283,-7405.448,7412.998,288,155,264,,2018-06-15 17:42:38.915
17.045776,-153,2063,-577,262,75,302,10081.223,7491.461,-7396.649,7481.442,,,,,2018-06-15 17:42:38.935
17.065765,-145,2139,-490,257,119,376,10056.626,7454.461,-7394.599,7553.186,,,,,2018-06-15 17:42:38.955
17.085754,-92,2152,-469,189,135,410,10021.714,7427.052,-7400.521,7620.49,,,,,2018-06-15 17:42:38.975
17.105743,-18,2101,-447,97,167,405,9975.508,7411.533,-7414.033,7682.835,,,,,2018-06-15 17:42:38.995
17.125732,7,2088,-425,-4,202,412,9918.787,7405.277,-7435.719,7741.126,295,148,253,,2018-06-15 17:42:39.015
17.145721,24,2011,-377,-92,239,423,9851.125,7408.518,-7463.231,7797.745,,,,,2018-06-15 17:42:39.035
17.16571,75,1914,-462,-158,277,436,9775.678,7419.137,-7494.264,7852.64,,,,,2018-06-15 17:42:39.055
17.185699,77,1894,-437,-211,299,435,9699.299,7433.205,-7526.933,7902.644,,,,,2018-06-15 17:42:39.075
17.20578,100,1981,-416,-230,283,405,9627.744,7447.273,-7559.373,7945.816,,,,,2018-06-15 17:42:39.095
17.225677,75,2035,-403,-234,244,365,9563.039,7459.99,-7592.855,7980.026,306,162,249,,2018-06-15 17:42:39.115
17.245697,91,2070,-435,-227,180,312,9511.11,7471.446,-7623.25,8002.36,,,,,2018-06-15 17:42:39.135
17.265686,113,2057,-460,-210,118,240,9471.418,7476.597,-7653.125,8016.098,,,,,2018-06-15 17:42:39.155
17.285644,64,1999,-496,-173,50,190,9446.011,7475.489,-7680.146,8021.267,,,,,2018-06-15 17:42:39.175
17.305664,41,1919,-552,-131,-32,132,9437.102,7464.448,-7706.09,8017.152,,,,,2018-06-15 17:42:39.195
17.325653,49,1926,-549,-76,-127,78,9443.738,7443.33,-7727.665,8008.2,311,159,270,39706,2018-06-15 17:42:39.215
17.345611,61,2071,-478,-7,-198,46,9461.799,7413.07,-7746.857,7996.398,,,,,2018-06-15 17:42:39.235
17.3656,-37,2234,-384,41,-250,28,9486.645,7377.553,-7767.16,7980.096,,,,,2018-06-15 17:42:39.255
17.38562,-104,2274,-395,43,-301,9,9514.935,7343.139,-7791.203,7954.678,,,,,2018-06-15 17:42:39.275
17.405609,-58,2161,-489,10,-322,-24,9544.142,7313.51,-7814.488,7924.086,,,,,2018-06-15 17:42:39.295
17.425598,55,1971,-549,1,-320,-54,9574.414,7282.393,-7836.295,7894.634,328,176,263,,2018-06-15 17:42:39.315
17.445587,151,1873,-621,17,-326,-40,9603.033,7243.945,-7860.97,7870.68,,,,,2018-06-15 17:42:39.335
17.465576,113,1989,-585,38,-336,28,9625.329,7197.807,-7889.759,7856.955,,,,,2018-06-15 17:42:39.355
17.485596,37,2151,-493,47,-322,112,9642.638,7149.423,-7920.934,7848.536,,,,,2018-06-15 17:42:39.375
17.505554,66,2145,-427,34,-308,125,9655.237,7107.413,-7951.215,7840.579,,,,,2018-06-15 17:42:39.395
17.525543,54,2028,-394,11,-238,97,9661.712,7079.439,-7975.147,7833.602,326,175,267,,2018-06-15 17:42:39.415
17.545532,110,1929,-462,-23,-157,71,9660.53,7067.329,-7993.055,7827.74,,,,,2018-06-15 17:42:39.435
17.565521,104,1876,-453,-66,-77,29,9654.935,7067.953,-8004.908,7821.966,,,,,2018-06-15 17:42:39.455
17.58551,82,1955,-346,-95,-10,-8,9647.009,7082.254,-8011.781,7811.766,,,,,2018-06-15 17:42:39.475
17.60553,116,2063,-283,-130,30,-68,9638.143,7109.712,-8015.621,7793.809,,,,,2018-06-15 17:42:39.495
17.625519,198,2127,-312,-177,65,-138,9623.553,7144.058,-8023.361,7772.436,331,172,257,,2018-06-15 17:42:39.515
17.645508,119,2084,-274,-238,74,-110,9601.738,7178.963,-8037.838,7752.271,,,,,2018-06-15 17:42:39.535
17.665497,159,2061,-228,-258,77,-60,9576.761,7210.802,-8058.33,7732.317,,,,,2018-06-15 17:42:39.554
17.685486,149,2067,-249,-283,47,-35,9548.856,7239.525,-8084.039,7713.129,,,,,2018-06-15 17:42:39.574
17.705475,37,2083,-266,-295,48,-6,9518.095,7268.326,-8111.184,7695.545,,,,,2018-06-15 17:42:39.594
17.725464,-14,2115,-272,-293,52,2,9493.265,7295.882,-8134.264,7675.753,335,174,263,,2018-06-15 17:42:39.614
17.745453,34,2139,-359,-260,44,-44,9476.678,7325.299,-8148.275,7653.339,,,,,2018-06-15 17:42:39.634
17.765442,80,2094,-377,-213,33,-104,9472.094,7348.908,-8154.428,7629.79,,,,,2018-06-15 17:42:39.654
17.785431,79,2112,-424,-132,-10,-132,9479.173,7360.692,-8155.197,7608.79,,,,,2018-06-15 17:42:39.674
17.80542,76,2063,-396,-44,-57,-128,9496.15,7360.272,-8150.543,7592.996,,,,,2018-06-15 17:42:39.694
17.825409,56,2070,-404,48,-80,-110,9517.802,7351.934,-8138.543,7586.834,342,171,273,39681,2018-06-15 17:42:39.714
17.845398,-31,2102,-375,127,-65,-86,9542.057,7339.896,-8120.033,7587.856,,,,,2018-06-15 17:42:39.734
17.865387,-112,2173,-299,164,-38,-83,9564.538,7333.273,-8095.237,7592.449,,,,,2018-06-15 17:42:39.754
17.885406,-101,2184,-290,168,25,-103,9582.951,7337.574,-8062.337,7600.079,,,,,2018-06-15 17:42:39.774
17.905395,-126,2020,-241,163,106,-135,9594.368,7353.581,-8023.659,7611.128,,,,,2018-06-15 17:42:39.794
17.925384,0,2038,-283,132,183,-144,9596.476,7379.359,-7984.482,7624.708,349,166,275,,2018-06-15 17:42:39.814
17.945373,-37,2050,-253,83,247,-134,9589.118,7414.498,-7947.398,7638.607,,,,,2018-06-15 17:42:39.834
17.965332,-76,2161,-186,22,293,-138,9573.468,7461.825,-7910.993,7649.934,,,,,2018-06-15 17:42:39.854
17.985351,-83,2190,-155,-42,348,-164,9550.631,7521.502,-7875.295,7656.867,,,,,2018-06-15 17:42:39.874
18.005463,-27,2197,-126,-110,385,-186,9518.561,7591.073,-7844.048,7660.218,,,,,2018-06-15 17:42:39.894
18.02536,7,2144,-172,-179,425,-178,9475.896,7665.785,-7816.904,7666.457,341,163,274,,2018-06-15 17:42:39.914
18.045318,-23,2128,-140,-215,469,-130,9423.019,7737.466,-7791.938,7685.015,,,,,2018-06-15 17:42:39.934
18.065307,17,2112,-199,-198,519,-35,9365.746,7806.18,-7767.627,7710.106,,,,,2018-06-15 17:42:39.954
18.085296,-7,2185,-113,-180,521,-9,9306.897,7867.538,-7739.645,7747.053,,,,,2018-06-15 17:42:39.974
18.105377,17,2137,-254,-102,554,44,9250.328,7924.174,-7708.179,7788.344,,,,,2018-06-15 17:42:39.994
18.125275,101,2111,-259,-80,524,33,9200.555,7972.779,-7673.178,7832.137,,,,,2018-06-15 17:42:40.014
18.145264,-7,2091,-254,-16,501,42,9158.077,8012.647,-7635.685,7877.745,324,165,281,,2018-06-15 17:42:40.034
18.165253,22,2119,-193,25,450,20,9128.013,8049.24,-7595.205,7914.378,,,,,2018-06-15 17:42:40.054
18.185242,-9,2159,-156,64,398,-36,9105.48,8083.847,-7552.272,7946.085,,,,,2018-06-15 17:42:40.074
18.205231,-84,2174,-142,71,364,-73,9089.776,8118.213,-7509.572,7969.463,,,,,2018-06-15 17:42:40.094
18.22522,-80,2129,-162,61,321,-123,9081.721,8153.881,-7465.82,7983.328,,,,,2018-06-15 17:42:40.114
18.245239,-29,2128,-110,58,285,-179,9078.335,8189.918,-7420.975,7992.098,322,163,299,,2018-06-15 17:42:40.134
18.265198,-31,2033,-168,57,264,-200,9075.517,8225.27,-7377.759,7999,,,,,2018-06-15 17:42:40.154
18.285217,-58,2041,-89,53,257,-192,9070.659,8259.666,-7336.436,8007.071,,,,,2018-06-15 17:42:40.174
18.305206,-95,2049,-93,44,264,-168,9059.669,8295.484,-7298.056,8017.552,,,,,2018-06-15 17:42:40.194
18.325195,-134,2100,-55,22,291,-138,9043.104,8334.507,-7258.608,8031.581,322,163,299,39671,2018-06-15 17:42:40.214
18.345154,-130,2060,-75,14,332,-131,9023.182,8377.455,-7216.149,8047.55,323,169,296,,2018-06-15 17:42:40.234
18.365173,-370,2018,-92,17,365,-134,9001.188,8422.679,-7169.323,8066.805,,,,,2018-06-15 17:42:40.254
18.385162,-164,2085,-88,27,400,-134,8975.962,8466.931,-7121.826,8090.625,,,,,2018-06-15 17:42:40.274
18.405151,-135,2109,-71,38,415,-77,8947.26,8512.959,-7073.285,8116.658,,,,,2018-06-15 17:42:40.294
18.425201,-169,2141,-153,34,436,-104,8918.067,8559.297,-7022.201,8144.362,,,,,2018-06-15 17:42:40.314
18.44516,-168,2105,-249,47,448,-109,8893.447,8602.312,-6966.549,8173.705,313,149,312,,2018-06-15 17:42:40.334
18.465118,-57,2044,-304,101,428,-117,8876.899,8632.316,-6908.65,8209.127,,,,,2018-06-15 17:42:40.354
18.485107,-1,2019,-316,185,382,-92,8868.363,8651.683,-6849.799,8247.194,,,,,2018-06-15 17:42:40.374
18.505096,-99,2031,-323,236,323,-81,8861.518,8660.202,-6794.222,8291.464,,,,,2018-06-15 17:42:40.394
18.525085,-143,2079,-312,271,309,-27,8856.182,8661.973,-6742.422,8337.472,,,,,2018-06-15 17:42:40.414
18.545074,-165,2101,-346,276,271,-10,8854.385,8662.523,-6693.86,8377.841,314,155,309,,2018-06-15 17:42:40.434
18.565063,-112,2090,-330,251,222,-37,8859.728,8661.102,-6650.321,8408.28,,,,,2018-06-15 17:42:40.454
18.585083,-91,2031,-367,229,148,-70,8869.611,8658.278,-6616.149,8427.706,,,,,2018-06-15 17:42:40.474
18.605041,-51,1982,-315,170,86,-72,8879.086,8653.743,-6595.497,8438.567,,,,,2018-06-15 17:42:40.494
18.62503,-124,2083,-276,102,25,-47,8881.002,8652.01,-6587.302,8444.726,,,,,2018-06-15 17:42:40.514
18.645019,-213,2159,-263,18,41,-4,8873.668,8659.329,-6586.691,8445.412,312,148,311,,2018-06-15 17:42:40.534
18.665039,-146,2098,-302,-69,50,-7,8861.266,8675.301,-6588.054,8440.977,,,,,2018-06-15 17:42:40.554
18.685028,-75,2044,-363,-107,85,-18,8841.064,8696.218,-6591.858,8437.666,,,,,2018-06-15 17:42:40.574
18.705017,-59,2084,-281,-149,124,18,8810.557,8719.419,-6600.144,8439.154,,,,,2018-06-15 17:42:40.594
18.725006,-132,2142,-254,-177,155,75,8772.068,8745.498,-6612.557,8442.547,,,,,2018-06-15 17:42:40.614
18.744995,-129,2133,-241,-204,178,95,8732.18,8775.444,-6624.732,8443.279,310,160,309,,2018-06-15 17:42:40.634
18.764984,-60,2185,23,-221,182,68,8694.137,8808.158,-6635.076,8440.351,,,,,2018-06-15 17:42:40.654
18.784973,99,2666,-3,-241,175,38,8647.847,8849.083,-6655.748,8428.814,,,,,2018-06-15 17:42:40.674
18.804962,602,3527,-617,-341,184,70,8597.6,8872.493,-6693.048,8426.071,,,,,2018-06-15 17:42:40.694
18.824951,1428,3655,-477,-188,94,260,8531.782,8835.436,-6723.971,8506.903,310,160,309,39665,2018-06-15 17:42:40.714
18.84494,2453,2975,-764,278,289,780,8407.919,8748.056,-6756.397,8692.81,324,163,309,,2018-06-15 17:42:40.734
18.864929,3111,2492,-1494,437,470,1353,8189.782,8573.004,-6887.884,8967.918,,,,,2018-06-15 17:42:40.754
18.884949,2407,2594,-3391,535,597,2694,7836.717,8308.848,-7000.04,9433.121,,,,,2018-06-15 17:42:40.774
18.904907,1966,2686,-1262,1424,1427,3448,7506.495,7959.615,-6835.917,10099.64,,,,,2018-06-15 17:42:40.794
18.924896,2162,2783,-722,2955,2404,2866,7215.223,7706.269,-6527.58,10694.863,,,,,2018-06-15 17:42:40.814
18.944916,1980,1960,-1670,2355,2582,1865,6952.287,7541.286,-6243.493,11146.7,319,155,309,,2018-06-15 17:42:40.834
18.964874,1902,1042,-1394,1856,2460,1519,6747.464,7380.212,-5993.245,11511.761,,,,,2018-06-15 17:42:40.854
18.984894,1322,753,-570,1564,1573,1229,6606.662,7249.784,-5818.94,11762.993,,,,,2018-06-15 17:42:40.874
19.004883,778,1325,-795,1260,1197,806,6560.658,7196.513,-5727.753,11865.759,,,,,2018-06-15 17:42:40.894
19.024872,475,1508,-992,326,364,4,6642.404,7223.686,-5698.107,11817.945,,,,,2018-06-15 17:42:40.914
19.044861,463,1347,-655,-174,-428,-908,6841.069,7271.293,-5726.591,11660.603,374,188,303,,2018-06-15 17:42:40.934
19.06485,550,1300,-508,-368,-968,-1356,7065.401,7358.31,-5797.633,11434.958,,,,,2018-06-15 17:42:40.954
19.084839,898,1638,-611,-830,-1123,-1522,7268.279,7488.632,-5896.684,11169.469,,,,,2018-06-15 17:42:40.974
19.104828,672,1570,-584,-1116,-1065,-1460,7408.148,7643.286,-5997.867,10916.068,,,,,2018-06-15 17:42:40.994
19.124817,458,1547,-273,-1299,-702,-1173,7468.348,7824.582,-6054.05,10713.711,,,,,2018-06-15 17:42:41.014
19.144836,566,1513,-435,-1171,-96,-868,7452.912,8019.076,-6061.655,10575.456,421,199,243,,2018-06-15 17:42:41.034
19.164795,754,1490,-456,-1212,351,-652,7390.192,8228.467,-6059.651,10459.132,,,,,2018-06-15 17:42:41.054
19.184814,729,1536,-440,-1225,558,-473,7289.723,8430.975,-6048.846,10374.271,,,,,2018-06-15 17:42:41.074
19.204803,621,1312,-508,-1133,725,-274,7166.521,8617.661,-6031.708,10316.532,,,,,2018-06-15 17:42:41.094
19.224762,510,930,-570,-1044,807,-121,7054.436,8791.585,-6008.366,10260.504,,,,,2018-06-15 17:42:41.114
19.244781,1016,1078,-783,-938,670,-311,7011.174,8953.858,-5950.848,10183.06,376,186,254,,2018-06-15 17:42:41.134
19.26477,760,931,-716,-737,524,-654,6964.96,9065.837,-5912.272,10138.066,,,,,2018-06-15 17:42:41.154
19.284759,642,931,-553,-452,462,-138,6922.155,9127.173,-5885.394,10127.983,,,,,2018-06-15 17:42:41.174
19.304748,583,1060,-486,-238,285,-110,6910.13,9159.455,-5868.721,10116.721,,,,,2018-06-15 17:42:41.194
19.324737,472,1245,-346,-107,87,-147,6923.211,9173.889,-5860.908,10099.213,376,186,254,39660,2018-06-15 17:42:41.214
19.344726,367,1416,-196,-64,-67,-182,6952.113,9182.897,-5865.429,10068.5,351,182,309,,2018-06-15 17:42:41.234
19.364715,237,1438,-89,-117,-194,-214,6989.264,9194.586,-5881.866,10022.417,,,,,2018-06-15 17:42:41.254
19.384704,180,1421,-143,-185,-264,-240,7028.256,9213.824,-5907.393,9962.289,,,,,2018-06-15 17:42:41.274
19.404693,214,1412,-280,-284,-300,-260,7062.3,9241.533,-5936.483,9895.028,,,,,2018-06-15 17:42:41.294
19.424682,256,1449,-186,-341,-265,-258,7086.083,9273.247,-5963.628,9831.83,,,,,2018-06-15 17:42:41.314
19.444671,280,1398,-254,-326,-191,-202,7092.446,9304.165,-5988.103,9783.034,358,192,330,,2018-06-15 17:42:41.334
19.464661,275,1318,-334,-307,-92,-117,7084.406,9331.735,-6006.982,9750.975,,,,,2018-06-15 17:42:41.354
19.48465,319,1274,-466,-249,-10,-32,7069.446,9349.628,-6021.256,9735.876,,,,,2018-06-15 17:42:41.374
19.504639,354,1243,-541,-153,21,24,7056.72,9351.892,-6030.164,9737.421,,,,,2018-06-15 17:42:41.394
19.524658,391,1224,-614,-12,16,67,7051.934,9334.823,-6032.156,9756.015,,,,,2018-06-15 17:42:41.414
19.544647,370,1294,-643,136,-1,97,7056.34,9299.543,-6029.048,9788.39,346,180,344,,2018-06-15 17:42:41.434
19.564606,376,1438,-561,257,-32,114,7069.18,9251.296,-6027.007,9826.027,,,,,2018-06-15 17:42:41.454
19.584595,328,1652,-497,303,-95,126,7086.227,9204.323,-6032.192,9854.639,,,,,2018-06-15 17:42:41.474
19.604614,210,1893,-448,219,-154,92,7107.433,9170.495,-6049.733,9860.151,,,,,2018-06-15 17:42:41.494
19.624603,178,2051,-447,59,-226,23,7134.855,9156.229,-6079.905,9835.014,,,,,2018-06-15 17:42:41.514
19.644653,204,2138,-450,-132,-314,-75,7164.925,9156.947,-6120.717,9787.054,352,164,345,,2018-06-15 17:42:41.534
19.664581,229,2255,-452,-250,-347,-119,7191.287,9165.468,-6170.719,9728.167,,,,,2018-06-15 17:42:41.554
19.68457,201,2277,-464,-332,-362,-102,7210.027,9178.098,-6230.075,9664.348,,,,,2018-06-15 17:42:41.574
19.704559,156,2282,-438,-389,-372,-53,7218.531,9193.971,-6294.417,9601.013,,,,,2018-06-15 17:42:41.594
19.724548,187,2283,-622,-411,-325,11,7213.465,9209.321,-6356.648,9548.968,,,,,2018-06-15 17:42:41.614
19.744537,241,2304,-671,-391,-245,60,7200.876,9217.816,-6409.769,9514.701,352,169,347,,2018-06-15 17:42:41.634
19.764526,293,2301,-676,-281,-169,119,7185.962,9213.018,-6452.169,9501.957,,,,,2018-06-15 17:42:41.654
19.784515,263,2249,-655,-136,-117,165,7173.967,9193.509,-6484.219,9508.097,,,,,2018-06-15 17:42:41.674
19.804504,193,2304,-664,-1,-92,194,7166.196,9164.27,-6504.409,9528.373,,,,,2018-06-15 17:42:41.694
19.824493,89,2410,-603,111,-55,187,7166.227,9129.407,-6508.798,9558.77,352,169,347,39661,2018-06-15 17:42:41.713
19.844482,97,2544,-626,212,-13,139,7173.279,9095.468,-6497.11,9593.723,358,165,344,,2018-06-15 17:42:41.733
19.864471,71,2720,-550,268,29,69,7183.019,9068.261,-6470.05,9630.408,,,,,2018-06-15 17:42:41.753
19.88446,54,2825,-490,280,97,6,7191.577,9051.228,-6434.874,9663.555,,,,,2018-06-15 17:42:41.773
19.904449,-1,2907,-458,242,141,-43,7195.201,9047.704,-6394.653,9690.819,,,,,2018-06-15 17:42:41.793
19.924469,-44,2909,-475,170,201,-85,7192.704,9058.629,-6347.538,9713.415,,,,,2018-06-15 17:42:41.813
19.944458,-5,2864,-523,123,273,-129,7186.737,9080.736,-6291.026,9733.933,368,182,356,,2018-06-15 17:42:41.833
19.964447,88,2855,-578,103,334,-174,7176.249,9108.25,-6226.325,9757.537,,,,,2018-06-15 17:42:41.853
19.984436,143,2792,-632,114,397,-173,7158.786,9133.542,-6156.284,9791.108,,,,,2018-06-15 17:42:41.873
20.004425,235,2732,-713,165,451,-122,7133.948,9149.86,-6082.848,9839.779,,,,,2018-06-15 17:42:41.893
20.024444,263,2655,-671,247,491,-47,7103.232,9151.951,-6006.856,9906.513,,,,,2018-06-15 17:42:41.913
20.044403,153,2583,-619,347,517,41,7070.051,9141.392,-5929.497,9986.282,363,185,344,,2018-06-15 17:42:41.933
20.064392,36,2556,-574,424,519,82,7040.573,9127.093,-5846.405,10068.837,,,,,2018-06-15 17:42:41.953
20.084411,-45,2598,-557,450,524,33,7020.592,9121.803,-5755.06,10139.955,,,,,2018-06-15 17:42:41.973
20.10437,-20,2693,-516,394,514,-95,7015.261,9130.346,-5655.161,10192.03,,,,,2018-06-15 17:42:41.993
20.124359,-14,2710,-555,345,491,-250,7021.209,9150.619,-5546.997,10229.128,,,,,2018-06-15 17:42:42.013
20.144348,-33,2651,-610,301,489,-358,7033.536,9176.834,-5433.078,10258.273,360,172,344,,2018-06-15 17:42:42.033
20.164337,-29,2602,-693,293,487,-413,7052.912,9202.632,-5318.676,10281.785,,,,,2018-06-15 17:42:42.053
20.184326,8,2532,-730,291,443,-443,7077.17,9223.968,-5207.059,10303.109,,,,,2018-06-15 17:42:42.073
20.204315,12,2372,-759,307,402,-433,7100.412,9236.591,-5100.921,10328.87,,,,,2018-06-15 17:42:42.093
20.224304,-37,2213,-771,346,379,-376,7119.806,9240.671,-5000.582,10360.887,,,,,2018-06-15 17:42:42.113
20.244293,-37,2043,-748,360,365,-303,7133.341,9240.34,-4909.913,10395.179,358,182,337,,2018-06-15 17:42:42.133
20.264282,-32,1935,-645,330,334,-252,7144.026,9241.867,-4829.937,10423.91,,,,,2018-06-15 17:42:42.153
20.284271,-76,1833,-565,267,299,-228,7151.681,9250.563,-4758.688,10443.699,,,,,2018-06-15 17:42:42.173
20.304291,-115,1942,-536,178,289,-232,7155.709,9268.795,-4690.993,10455.395,,,,,2018-06-15 17:42:42.193
20.32428,-165,1905,-372,101,306,-254,7156.492,9301.105,-4624.429,10455.818,358,182,337,39671,2018-06-15 17:42:42.213
20.344269,-196,1962,-316,18,341,-290,7151.107,9350.162,-4555.414,10446.041,352,176,317,,2018-06-15 17:42:42.233
20.364258,-221,1975,-310,-77,402,-329,7138.059,9414.753,-4480.24,10429.45,,,,,2018-06-15 17:42:42.253
20.384247,-210,1922,-318,-145,484,-357,7114.528,9491.959,-4396.727,10411.072,,,,,2018-06-15 17:42:42.273
20.404236,-164,1838,-376,-174,581,-361,7078.873,9575.085,-4304.271,10397.883,,,,,2018-06-15 17:42:42.293
20.424225,-87,1720,-427,-161,679,-331,7029.623,9657.135,-4203.96,10396.456,,,,,2018-06-15 17:42:42.313
20.444244,0,1634,-499,-114,757,-268,6970.012,9730.99,-4101.428,10408.674,347,174,324,,2018-06-15 17:42:42.333
20.464203,58,1558,-501,-40,786,-192,6902.958,9791.256,-3998.969,10436.673,,,,,2018-06-15 17:42:42.353
20.484192,41,1492,-423,57,793,-106,6831.004,9836.98,-3898.776,10478.844,,,,,2018-06-15 17:42:42.373
20.504181,48,1434,-376,137,777,-35,6757.942,9872.428,-3803.277,10527.862,,,,,2018-06-15 17:42:42.393
20.5242,11,1465,-358,172,742,2,6688.447,9901.916,-3713.43,10576.511,,,,,2018-06-15 17:42:42.413
20.544159,-47,1558,-274,174,689,4,6625.469,9930.867,-3628.357,10618.451,335,162,338,,2018-06-15 17:42:42.433
20.564178,-97,1661,-202,134,635,-29,6572.294,9964.606,-3549.918,10646.365,,,,,2018-06-15 17:42:42.453
20.584137,-130,1792,-217,55,568,-88,6529.425,10006.288,-3477.036,10657.695,,,,,2018-06-15 17:42:42.473
20.604156,-152,1834,-292,-23,514,-157,6495.713,10052.332,-3403.993,10658.546,,,,,2018-06-15 17:42:42.493
20.624145,-106,1749,-340,-41,484,-217,6470.76,10095.052,-3328.289,10657.256,,,,,2018-06-15 17:42:42.513
20.644134,0,1665,-424,-12,456,-251,6450.246,10133.733,-3254.982,10655.623,329,165,346,,2018-06-15 17:42:42.533
20.664123,94,1670,-532,-12,432,-231,6424.749,10166.382,-3187.63,10660.287,,,,,2018-06-15 17:42:42.553
20.684112,279,1675,-596,23,377,-160,6402.167,10179.127,-3141.782,10675.311,,,,,2018-06-15 17:42:42.573
20.704101,265,1672,-483,106,257,-29,6374.307,10167.817,-3119.393,10709.272,,,,,2018-06-15 17:42:42.593
20.72409,121,1645,-437,200,176,156,6336.648,10141.394,-3122.638,10755.63,,,,,2018-06-15 17:42:42.613
20.744079,-26,1740,-397,201,91,310,6297.806,10112.442,-3145.661,10798.907,326,160,351,,2018-06-15 17:42:42.633
20.764068,172,2037,-352,133,-1,336,6273.662,10088.606,-3185.489,10823.553,,,,,2018-06-15 17:42:42.653
20.784057,260,2054,-419,16,-138,273,6259.092,10071.242,-3248.86,10829.32,,,,,2018-06-15 17:42:42.673
20.804077,255,2199,-346,-129,-249,279,6242.205,10060.629,-3325.357,10825.712,,,,,2018-06-15 17:42:42.693
20.824036,206,2242,-343,-188,-252,322,6217.845,10052.562,-3412.921,10819.972,326,160,351,39660,2018-06-15 17:42:42.713
20.844055,143,2174,-316,-219,-277,393,6187.5,10044.467,-3511.369,10813.382,334,165,367,,2018-06-15 17:42:42.733
20.864105,74,2114,-299,-263,-294,448,6151.761,10040.784,-3615.967,10802.718,,,,,2018-06-15 17:42:42.753
20.884033,113,2115,-338,-313,-281,464,6113.007,10042.183,-3719.071,10788.403,,,,,2018-06-15 17:42:42.773
20.904022,222,2084,-346,-325,-247,453,6068.403,10043.213,-3814.713,10779.228,,,,,2018-06-15 17:42:42.793
20.924011,331,2079,-309,-292,-199,471,6017.506,10039.33,-3910.217,10777.157,,,,,2018-06-15 17:42:42.813
20.944,317,2112,-272,-252,-183,527,5958.445,10030,-4009.773,10782.077,336,182,356,,2018-06-15 17:42:42.833
20.963989,179,2153,-201,-232,-174,592,5895.441,10017.734,-4108.91,10790.787,,,,,2018-06-15 17:42:42.853
20.983978,65,2291,-152,-216,-162,589,5839.092,10009.345,-4198.667,10794.658,,,,,2018-06-15 17:42:42.873
21.003967,60,2350,-130,-218,-143,484,5795.976,10008.006,-4267.903,10791.984,,,,,2018-06-15 17:42:42.893
21.023956,132,2399,-164,-195,-102,330,5768.162,10012.167,-4316.135,10783.84,,,,,2018-06-15 17:42:42.913
21.043945,210,2401,-296,-173,-82,190,5750.922,10018.227,-4351.436,10773.229,353,168,370,,2018-06-15 17:42:42.933
21.063934,90,2387,-362,-139,-74,121,5740.231,10016.822,-4380.222,10768.57,,,,,2018-06-15 17:42:42.953
21.083923,249,2259,-504,-51,-82,145,5741.29,10004.482,-4402.207,10770.512,,,,,2018-06-15 17:42:42.973
21.103912,98,2270,-623,43,-121,71,5756.59,9974.066,-4424.242,10781.521,,,,,2018-06-15 17:42:42.993
21.123901,335,2271,-658,158,-229,59,5790.176,9921.97,-4455.125,10798.873,,,,,2018-06-15 17:42:43.013
21.14389,310,2377,-563,268,-345,95,5833.162,9852.616,-4502.043,10819.76,366,164,375,,2018-06-15 17:42:43.033
21.163879,238,2454,-484,296,-485,145,5883.646,9776.74,-4569.064,10833.15,,,,,2018-06-15 17:42:43.053
21.183899,134,2540,-456,239,-594,176,5933.09,9702.241,-4658.795,10834.944,,,,,2018-06-15 17:42:43.073
21.203888,44,2619,-515,147,-697,256,5986.838,9628.537,-4756.866,10828.514,,,,,2018-06-15 17:42:43.093
21.223846,98,2486,-569,129,-738,196,6050.12,9552.254,-4862.234,10814.093,,,,,2018-06-15 17:42:43.113
21.243835,115,2471,-658,116,-827,220,6116.976,9473.117,-4971.86,10796.235,375,172,370,,2018-06-15 17:42:43.133
21.263824,125,2364,-692,109,-842,201,6184.065,9390.966,-5084.534,10777.293,,,,,2018-06-15 17:42:43.153
21.283844,192,2277,-790,107,-866,220,6251.591,9304.775,-5202.108,10756.964,,,,,2018-06-15 17:42:43.173
21.303833,207,2173,-791,109,-898,244,6318.077,9211.748,-5323.558,10738.75,,,,,2018-06-15 17:42:43.193
21.323822,186,2118,-751,134,-914,275,6383.194,9113.615,-5447.372,10721.866,375,172,370,39625,2018-06-15 17:42:43.213
21.343811,194,2095,-741,145,-923,298,6444.921,9015.361,-5570.983,10704.477,382,182,363,,2018-06-15 17:42:43.233
21.3638,212,2111,-695,127,-904,306,6502.131,8920.79,-5692.996,10684.897,,,,,2018-06-15 17:42:43.253
21.383789,220,2168,-755,96,-876,300,6553.767,8833.376,-5811.382,10662.216,,,,,2018-06-15 17:42:43.273
21.403778,270,2220,-720,63,-833,288,6602.359,8749.523,-5926.284,10638.106,,,,,2018-06-15 17:42:43.293
21.423767,285,2143,-828,54,-814,279,6648.777,8663.15,-6041.597,10614.995,,,,,2018-06-15 17:42:43.313
21.443756,309,2069,-826,74,-816,301,6697.038,8574.576,-6155.943,10590.851,368,180,339,,2018-06-15 17:42:43.333
21.463745,314,1945,-857,77,-830,297,6745.686,8481.903,-6269.812,10567.778,,,,,2018-06-15 17:42:43.353
21.483765,314,1856,-922,98,-836,298,6798.258,8385.921,-6380.836,10544.211,,,,,2018-06-15 17:42:43.373
21.503754,310,1792,-935,123,-852,271,6857.958,8286.361,-6487.922,10518.884,,,,,2018-06-15 17:42:43.393
21.523743,340,1760,-928,158,-874,236,6925.602,8182.493,-6593.997,10489.875,,,,,2018-06-15 17:42:43.413
21.543732,405,1724,-925,175,-924,207,7000.952,8073.848,-6702.879,10454.974,381,186,340,,2018-06-15 17:42:43.433
21.563721,487,1727,-902,184,-983,185,7082.845,7959.264,-6818.856,10412.59,,,,,2018-06-15 17:42:43.453
21.583679,540,1733,-869,177,-1072,183,7170.536,7836.066,-6948.126,10360.427,,,,,2018-06-15 17:42:43.473
21.603699,553,1780,-845,155,-1195,198,7263.505,7704.922,-7097.621,10292.467,,,,,2018-06-15 17:42:43.493
21.623688,510,1758,-824,92,-1347,212,7361.034,7566.783,-7265.969,10207.845,,,,,2018-06-15 17:42:43.513
21.643677,454,1710,-762,47,-1478,218,7463.878,7423.411,-7446.07,10108.163,388,195,333,,2018-06-15 17:42:43.533
21.663666,365,1607,-726,4,-1573,196,7570.644,7282.036,-7632.682,9991.741,,,,,2018-06-15 17:42:43.553
21.683655,293,1531,-734,-58,-1626,139,7678.961,7151.594,-7821.338,9856.488,,,,,2018-06-15 17:42:43.573
21.703644,246,1480,-721,-161,-1658,55,7789.58,7035.47,-8008.853,9701.459,,,,,2018-06-15 17:42:43.593
21.723633,303,1532,-687,-240,-1657,-55,7903.45,6936.45,-8188.536,9529.137,,,,,2018-06-15 17:42:43.613
21.743622,411,1581,-645,-298,-1634,-178,8014.225,6849.066,-8359.114,9350.033,392,197,309,,2018-06-15 17:42:43.633
21.763611,471,1649,-573,-331,-1570,-214,8112.557,6770.007,-8522.272,9173.861,,,,,2018-06-15 17:42:43.653
21.7836,464,1694,-491,-363,-1462,-189,8189.306,6701.276,-8678.599,9008.081,,,,,2018-06-15 17:42:43.673
21.803589,457,1845,-423,-434,-1331,-108,8244.475,6643.512,-8827.603,8854.447,,,,,2018-06-15 17:42:43.693
21.823608,388,1706,-417,-446,-1173,-116,8284.57,6600.008,-8970.559,8704.613,392,197,309,39628,2018-06-15 17:42:43.713
21.843567,314,1823,-325,-554,-1091,-104,8319.929,6574.473,-9105.985,8548.19,404,202,299,,2018-06-15 17:42:43.733
21.863586,416,1902,-189,-609,-1062,-218,8359.458,6568.45,-9234.916,8374.167,,,,,2018-06-15 17:42:43.753
21.883575,507,1799,-140,-640,-1040,-366,8401.402,6573.287,-9361.937,8185.224,,,,,2018-06-15 17:42:43.773
21.903564,490,1775,-117,-703,-1073,-431,8431.187,6584.818,-9499.804,7984.009,,,,,2018-06-15 17:42:43.793
21.923553,510,1759,-233,-883,-1101,-376,8438.504,6598.782,-9657.765,7772.434,,,,,2018-06-15 17:42:43.813
21.943542,418,1810,-227,-999,-1134,-315,8441.894,6602.735,-9816.105,7564.247,391,195,317,,2018-06-15 17:42:43.833
21.963531,438,2071,-90,-929,-1135,-268,8455.565,6593.506,-9961.802,7363.9,,,,,2018-06-15 17:42:43.853
21.98352,420,2099,73,-773,-1130,-277,8474.545,6571.304,-10105.248,7163.757,,,,,2018-06-15 17:42:43.873
22.003509,429,2280,218,-780,-1199,-229,8495.019,6539.11,-10252.78,6956.336,,,,,2018-06-15 17:42:43.893
22.023498,376,2118,245,-758,-1277,-211,8500.141,6496.131,-10428.295,6725.62,,,,,2018-06-15 17:42:43.912
22.043487,374,2037,13,-1047,-1462,-120,8486.696,6440.744,-10635.324,6466.693,383,198,329,,2018-06-15 17:42:43.932
22.063476,260,2083,-18,-1126,-1620,-43,8484.991,6353.769,-10839.418,6211.038,,,,,2018-06-15 17:42:43.952
22.083526,206,2295,140,-921,-1699,62,8510.835,6228.694,-11025.226,5970.668,,,,,2018-06-15 17:42:43.973
22.103454,24,2375,437,-599,-1770,139,8566.596,6073.215,-11185.709,5748.463,,,,,2018-06-15 17:42:43.992
22.123505,61,2481,682,-369,-1790,181,8626.059,5909.274,-11338.179,5527.45,,,,,2018-06-15 17:42:44.013
22.143524,7,2483,793,-388,-1778,201,8664.709,5747.099,-11498.621,5301.962,356,177,344,,2018-06-15 17:42:44.033
22.163513,62,2321,529,-561,-1771,240,8676.656,5586.388,-11673.03,5067.91,,,,,2018-06-15 17:42:44.053
22.183502,124,2154,308,-673,-1772,298,8689.062,5409.902,-11841.058,4843.338,,,,,2018-06-15 17:42:44.073
22.203491,204,1982,138,-522,-1780,389,8722.015,5201.443,-11989.707,4642.606,,,,,2018-06-15 17:42:44.092
22.22348,201,1778,-48,-248,-1772,541,8784.295,4953.226,-12111.379,4477.906,,,,,2018-06-15 17:42:44.112
22.243439,261,2136,128,127,-1754,724,8900.135,4661.037,-12187.977,4353.271,352,162,366,,2018-06-15 17:42:44.132
22.263458,212,2233,707,674,-1744,849,9055.193,4338.251,-12226.647,4257.652,,,,,2018-06-15 17:42:44.152
22.283447,89,1808,549,907,-1723,928,9167.556,4018.115,-12291.116,4144.219,,,,,2018-06-15 17:42:44.172
22.303436,86,1657,97,330,-1785,934,9233.374,3715.864,-12382.773,4004.938,,,,,2018-06-15 17:42:44.192
22.323425,86,1639,32,257,-1784,864,9319.922,3417.344,-12447.504,3867.282,352,162,366,39636,2018-06-15 17:42:44.212
22.343414,117,1749,196,469,-1756,792,9428.223,3119.025,-12486.142,3729.875,346,172,367,,2018-06-15 17:42:44.232
22.363403,74,1833,373,608,-1753,738,9537.294,2824.625,-12514.723,3588.683,,,,,2018-06-15 17:42:44.252
22.383392,15,1905,601,584,-1739,700,9627.739,2541.415,-12547.547,3441.27,,,,,2018-06-15 17:42:44.272
22.403381,21,1935,537,431,-1699,658,9684.025,2276.661,-12596.065,3288.015,,,,,2018-06-15 17:42:44.292
22.42337,54,1875,379,169,-1650,617,9705.264,2029.273,-12661.052,3134.184,,,,,2018-06-15 17:42:44.312
22.443359,148,1831,260,-22,-1577,602,9712.346,1790.732,-12727.02,2986.973,376,198,331,,2018-06-15 17:42:44.332
22.463348,159,1876,220,-38,-1515,611,9721.385,1551.859,-12782.438,2851.511,,,,,2018-06-15 17:42:44.352
22.483368,216,1992,273,43,-1456,652,9741.235,1307.187,-12821.393,2728.902,,,,,2018-06-15 17:42:44.372
22.503357,278,2039,295,166,-1411,706,9763.212,1059.391,-12849.899,2621.622,,,,,2018-06-15 17:42:44.392
22.523346,361,2115,285,180,-1329,765,9781.858,810.468,-12872.194,2529.908,,,,,2018-06-15 17:42:44.412
22.543335,404,2202,276,195,-1268,819,9797.236,559.65,-12889.145,2450.783,395,188,298,,2018-06-15 17:42:44.432
22.563324,289,2179,265,204,-1214,872,9811.373,311.973,-12900.346,2378.26,,,,,2018-06-15 17:42:44.452
22.583282,253,2235,179,211,-1173,842,9826.253,81.181,-12906.992,2298.51,,,,,2018-06-15 17:42:44.472
22.603302,238,2395,212,223,-1151,709,9853.066,-126.078,-12902.334,2205.993,,,,,2018-06-15 17:42:44.492
22.623291,355,2564,313,317,-1114,547,9888.549,-310.5,-12889.595,2100.938,,,,,2018-06-15 17:42:44.512
22.64328,375,2636,406,333,-1089,412,9915.964,-477.986,-12880.732,1991.826,421,192,299,,2018-06-15 17:42:44.532
22.663269,366,2605,336,224,-1049,351,9921.269,-630.694,-12886.091,1885.396,,,,,2018-06-15 17:42:44.552
22.683258,321,2550,262,66,-990,309,9916.005,-768.796,-12897.374,1781.845,,,,,2018-06-15 17:42:44.572
22.703247,291,2469,217,25,-936,254,9908.18,-893.986,-12909.414,1676.674,,,,,2018-06-15 17:42:44.592
22.723236,270,2469,258,7,-912,189,9901.879,-1008.563,-12919.766,1565.461,,,,,2018-06-15 17:42:44.612
22.743225,242,2475,272,27,-907,121,9896.745,-1115.571,-12928.619,1447.821,443,185,295,,2018-06-15 17:42:44.632
22.763214,170,2468,364,30,-912,70,9890.73,-1216.973,-12937.369,1323.763,,,,,2018-06-15 17:42:44.652
