;Title, http://www.gcdataconcepts.com, HAM-IMU, MPU-9250,,,,,,,,,,,,
;Version,1191, Build date, Nov 15 2016,  SN:CCDC30161C28AA2,,,,,,,,,,,
;Start_time, 2018-06-16, 11:44:51.282,2018-06-16 11:44:51.282,,,,,,,,,,,,
;Temperature,-999, deg C,  Vbat,4194, mv,,,,,,,,,,
;MPU SR,200,Hz,  Accel sens,2048,counts/g, Gyro sens,16,counts/dps,  Mag SR,10,Hz,  Mag sens,1666,counts/mT,
;Deadband,0, counts,,,,,,,,,,,,,
;DeadbandTimeout,5,sec,,,,,,,,,,,,,
;Time, Ax, Ay, Az, Gx, Gy, Gz, Qw, Qx, Qy, Qz, Mx, My, Mz, T,Date Time
0.003357,1148,2765,422,-4020,-22301,-2074,12552.482,3663.139,-9854.928,576.488,511,240,148,35216,2018-06-16 11:44:51.285
0.023377,1314,2288,315,1104,-9293,-4033,12680.279,4147.357,-9504.369,335.144,,,,,2018-06-16 11:44:51.305
0.043335,469,2034,-185,1500,6618,-2530,12308.696,5564.526,-9183.385,1277.808,,,,,2018-06-16 11:44:51.325
0.063324,-915,1325,97,1564,10326,-225,11971.153,6366.409,-8951.742,2112.359,370,240,129,35200,2018-06-16 11:44:51.345
0.083344,285,2157,-401,813,4132,1066,12007.155,6235.913,-9021.997,1995.149,,,,,2018-06-16 11:44:51.365
0.103302,300,1958,-27,-1224,-3633,225,12255.121,5442.974,-9302.706,1442.607,,,,,2018-06-16 11:44:51.385
0.123291,793,1784,317,-662,-6267,552,12411.199,4839.669,-9475.368,1092.053,,,,,2018-06-16 11:44:51.405
0.14328,133,1853,35,-650,-2269,855,12234.886,4844.921,-9662.858,1378.01,,,,,2018-06-16 11:44:51.425
0.1633,206,1787,62,-992,3112,1859,11872.844,5279.291,-9773.306,2020.538,368,250,155,,2018-06-16 11:44:51.445
0.183258,348,1837,-205,-895,4910,1465,11468.07,5569.394,-9963.595,2574.378,,,,,2018-06-16 11:44:51.465
0.203278,76,2006,-118,-1487,2613,2313,11123.289,5431.755,-10322.046,2942.665,,,,,2018-06-16 11:44:51.485
0.223267,-64,2059,-502,-2063,528,3171,10731.98,5248.248,-10721.913,3279.713,,,,,2018-06-16 11:44:51.505
0.243225,-109,1894,-510,-2017,1301,3006,10380.444,5253.538,-10897.332,3785.539,,,,,2018-06-16 11:44:51.525
0.263214,-26,2101,-466,-448,2954,2299,10152.997,5383.78,-10825.585,4378.778,353,257,166,,2018-06-16 11:44:51.545
0.283203,97,2178,-672,568,3097,1565,10080.019,5305,-10743.347,4823.496,,,,,2018-06-16 11:44:51.565
0.303192,-684,1959,-167,1338,633,2247,10168.067,4855.588,-10733.323,5124.926,,,,,2018-06-16 11:44:51.585
0.323181,264,564,-668,1486,-1055,2495,10295.932,4467.881,-10712.252,5264.496,,,,,2018-06-16 11:44:51.605
0.34317,58,1240,-248,1384,-695,1373,10489.292,4079.38,-10591.32,5439.926,,,,,2018-06-16 11:44:51.625
0.363159,170,513,265,1977,-913,1825,10558.308,3666.282,-10602.471,5577.055,405,290,231,,2018-06-16 11:44:51.645
0.383149,-480,1309,574,1076,-1225,1945,10506.583,3411.205,-10665.57,5714.581,,,,,2018-06-16 11:44:51.665
0.523743,-300,3907,1611,-507,285,1308,10277.104,3731.152,-10721.43,5826.318,,,,,2018-06-16 11:44:51.806
0.524079,1012,4769,-1531,-2629,2551,-1502,9696.282,4601.83,-10943.099,5786.993,,,,,2018-06-16 11:44:51.806
0.543091,-282,5150,-991,-4339,3332,-1104,9277.993,5008.258,-10894.335,6211.689,481,262,227,,2018-06-16 11:44:51.825
0.543427,-3618,3595,-1701,-239,4445,1052,9021.694,6031.302,-10220.982,6796.962,,,,,2018-06-16 11:44:51.825
0.56308,828,2539,-444,-62,15127,-5396,8438.105,7722.738,-8312.49,8276.193,481,262,227,35216,2018-06-16 11:44:51.845
0.563446,-595,2003,825,4710,11775,-1650,8293.607,7759.233,-7566.559,9066.035,,,,,2018-06-16 11:44:51.845
0.5831,-1192,1996,593,3190,3321,1162,8504.788,7118.894,-7736.907,9250.167,,,,,2018-06-16 11:44:51.865
0.583435,-969,1528,146,1585,-6885,2123,9306.636,5783.205,-9133.976,8058.917,,,,,2018-06-16 11:44:51.865
0.603028,-117,2423,360,-1180,-16849,143,10217.384,4256.53,-10389.19,6163.334,,,,,2018-06-16 11:44:51.885
0.603363,825,3053,149,212,-14803,-1882,10813.925,3566.424,-10691.583,4946.222,,,,,2018-06-16 11:44:51.885
0.60373,967,2852,-277,1068,-4289,-3072,11056.525,3873.691,-10367.15,4868.818,,,,,2018-06-16 11:44:51.886
0.623017,166,2659,6,1903,3528,-1663,11178.263,4256.87,-9804.74,5406.292,,,,,2018-06-16 11:44:51.905
0.643067,50,1802,203,3256,3661,289,11301.724,4251.114,-9431.927,5802.865,,,,,2018-06-16 11:44:51.925
0.662995,-265,1489,-28,1795,781,1143,11338.338,4006.987,-9419.794,5923.6,411,240,143,,2018-06-16 11:44:51.945
0.682953,-453,1293,-253,352,-1108,1038,11395.849,3821.164,-9472.392,5851.713,,,,,2018-06-16 11:44:51.965
0.702973,1436,1929,-166,481,-1027,-274,11551.651,3425.743,-9558.438,5647.594,,,,,2018-06-16 11:44:51.985
0.722962,-157,1278,324,592,-6231,2280,11652.224,2438.233,-9997.385,5173.819,,,,,2018-06-16 11:44:52.005
0.742951,354,1864,123,-560,-4639,373,11661.093,2561.696,-10018.348,5052.202,,,,,2018-06-16 11:44:52.025
0.76294,596,1928,-512,-221,1905,-1308,11605.102,3194.133,-9782.285,5278.395,468,256,161,,2018-06-16 11:44:52.045
0.782929,240,1457,-531,-12,4538,-1149,11553.541,3542.461,-9525.486,5627.361,,,,,2018-06-16 11:44:52.065
0.802918,-413,1128,490,1011,1642,718,11636.729,3206.985,-9495.589,5707.102,,,,,2018-06-16 11:44:52.085
0.822907,-428,1524,518,956,-2438,1223,11666.08,2912.518,-9720.607,5418.951,,,,,2018-06-16 11:44:52.105
0.842865,485,2284,-532,-1661,-2223,-990,11538.433,3119.102,-10046.802,4963.161,,,,,2018-06-16 11:44:52.125
0.862885,199,2886,-428,-2647,-725,-2113,11416.722,3345.688,-10240.685,4693.468,535,226,148,,2018-06-16 11:44:52.145
0.882874,19,3317,-212,-1527,63,-1080,11309.897,3583.697,-10332.116,4574.511,,,,,2018-06-16 11:44:52.165
0.902863,1193,2472,-898,-1300,719,-1186,11240.05,4080.079,-10239.08,4539.921,,,,,2018-06-16 11:44:52.185
0.950196,358,2134,-112,-148,2231,-1138,11169.745,4007.607,-10286.837,4668.222,,,,,2018-06-16 11:44:52.232
0.950562,-525,1935,68,-582,-750,1749,11023.079,3713.852,-10509.193,4763.541,,,,,2018-06-16 11:44:52.233
0.96283,142,1805,-301,-788,-663,1604,10865.175,3831.546,-10594.104,4844.337,508,223,145,,2018-06-16 11:44:52.245
0.982819,168,2007,-189,-1012,1663,-337,10704.539,4144.238,-10557.547,5021.133,,,,,2018-06-16 11:44:52.265
1.002777,-110,2322,-285,-660,2065,-77,10549.093,4322.827,-10584.267,5141.841,,,,,2018-06-16 11:44:52.285
1.022766,121,2314,-512,-958,730,119,10456.971,4362.057,-10696.921,5063.153,,,,,2018-06-16 11:44:52.305
1.042755,154,2187,-326,-838,-723,-172,10470.756,4245.22,-10792.783,4928.756,,,,,2018-06-16 11:44:52.325
1.062744,14,1929,58,-28,-1175,235,10500.989,4131.117,-10825.056,4890.47,468,249,189,35230,2018-06-16 11:44:52.345
1.082764,92,2010,-200,76,-222,236,10441.891,4205.526,-10830.785,4940.646,,,,,2018-06-16 11:44:52.365
1.102722,332,2057,-531,-521,889,-70,10341.653,4341.806,-10841.173,5010.324,,,,,2018-06-16 11:44:52.385
1.122711,1448,476,-1971,-532,762,-84,10321.229,4370.887,-10850.825,5006.257,,,,,2018-06-16 11:44:52.405
1.142731,-896,4634,-2281,-99,-501,-488,10619.656,3731.23,-10796.222,5017.753,,,,,2018-06-16 11:44:52.425
1.16272,-1879,6045,-2567,1592,-3659,2271,10961.853,2712.422,-10969.614,4536.904,473,268,203,,2018-06-16 11:44:52.445
1.182679,-1771,6204,-1597,1253,-7686,2005,11873.335,929.681,-10763.992,3275.746,,,,,2018-06-16 11:44:52.465
1.202668,-3896,5364,1157,9107,-15225,813,13097.938,-1831.348,-9617.093,1016.503,,,,,2018-06-16 11:44:52.485
1.222657,-280,2972,1588,13376,-20760,-3645,13800.132,-3881.742,-7667.561,-2032.154,,,,,2018-06-16 11:44:52.505
1.242646,389,292,3700,14905,-16725,-4647,14120.562,-4856.261,-5465.548,-3948.327,,,,,2018-06-16 11:44:52.525
1.262665,1309,-411,2254,11916,-6784,-3266,14350.14,-4386.298,-4545.699,-4754.566,490,256,219,,2018-06-16 11:44:52.545
1.282624,601,69,757,4703,2830,-2121,14549.576,-3819.895,-4498.575,-4681.507,,,,,2018-06-16 11:44:52.565
1.302613,-1112,-31,197,-357,2558,935,14640.476,-3744.013,-4672.079,-4271.525,,,,,2018-06-16 11:44:52.585
1.322602,635,110,1398,-1243,1364,2018,14648.549,-3596.872,-5022.207,-3961.74,,,,,2018-06-16 11:44:52.605
1.342591,191,764,744,-3130,1979,1388,14533.555,-3435.235,-5885.661,-3281.665,,,,,2018-06-16 11:44:52.625
1.36258,-21,1169,178,-6338,4078,1935,14281.314,-2975.07,-7092.818,-2306.576,607,199,173,,2018-06-16 11:44:52.645
1.382569,-281,1537,387,-7482,6176,2538,13906.44,-2198.613,-8310.611,-1070.518,,,,,2018-06-16 11:44:52.665
1.402558,-570,2429,1025,-7904,8455,2690,13242.154,-1032.501,-9583.123,421.891,,,,,2018-06-16 11:44:52.685
1.449982,-1621,5227,735,-9524,10949,2680,11961.433,608.04,-10955.147,2230.034,,,,,2018-06-16 11:44:52.732
1.450348,-492,1695,-4052,-13008,14536,2564,10265.896,3754.803,-11372.913,4427.344,,,,,2018-06-16 11:44:52.732
1.462525,-19665,17016,8180,-6096,23947,-1280,9501.365,4979.5,-10869.937,5933.678,606,162,90,,2018-06-16 11:44:52.745
1.482514,774,976,240,-126,4612,1550,9334.101,4540.116,-11150.71,6029.84,,,,,2018-06-16 11:44:52.765
1.502503,-1278,3953,799,-572,-3605,3533,9010.877,4091.763,-11620.358,5955.19,,,,,2018-06-16 11:44:52.785
1.522492,-67,2744,1184,-2480,-536,1927,8702.239,4382.99,-11647.124,6151.451,,,,,2018-06-16 11:44:52.804
1.542481,1289,1166,-868,-949,2959,-486,8667.409,4657.907,-11424.084,6411.37,,,,,2018-06-16 11:44:52.824
1.56247,-371,1740,-1289,827,1968,-466,8718.806,4753.947,-11264.389,6552.204,552,240,218,35222,2018-06-16 11:44:52.844
1.582459,-558,2923,237,72,932,-296,9108.169,4787.801,-10947.84,6534.405,,,,,2018-06-16 11:44:52.864
1.602448,471,2540,258,4073,-1114,-2654,9827.721,4743.342,-10634.575,6021.449,,,,,2018-06-16 11:44:52.884
1.622437,561,2815,-80,1898,-3589,-3867,10318.184,4430.821,-10758.563,5156.708,,,,,2018-06-16 11:44:52.904
1.642426,314,3115,-611,-118,-6129,-1756,10600.143,3873.104,-11042.089,4375.354,,,,,2018-06-16 11:44:52.924
1.662415,395,2867,-285,92,-5215,-390,10876.853,3516.812,-11008.295,4071.728,537,260,243,,2018-06-16 11:44:52.944
1.682404,579,2429,-3,2046,-1239,-199,11137.164,3483.129,-10684.19,4256.162,,,,,2018-06-16 11:44:52.964
1.702393,142,2185,-2,2612,1414,258,11307.995,3384.51,-10393.727,4591.32,,,,,2018-06-16 11:44:52.984
1.722382,309,1768,218,2119,543,1452,11434.931,3044.651,-10274.572,4779.23,,,,,2018-06-16 11:44:53.004
1.742371,64,1560,73,1541,-1212,1668,11480.241,2669.865,-10266.679,4909.85,,,,,2018-06-16 11:44:53.024
1.76236,-241,1488,-357,628,-621,1840,11427.202,2572.893,-10221.479,5172.628,486,262,208,,2018-06-16 11:44:53.044
1.782349,-492,2073,-174,304,1450,1073,11472.404,2733.184,-10046.748,5330.285,,,,,2018-06-16 11:44:53.064
1.802338,222,2432,-173,844,1026,-1227,11687.201,2778.325,-9965.478,4981.457,,,,,2018-06-16 11:44:53.084
1.822327,386,2558,-233,627,-2682,-2093,11932.477,2310.333,-10115.19,4289.139,,,,,2018-06-16 11:44:53.104
1.842316,237,2511,-260,324,-5726,-1009,12130.966,1649.439,-10250.252,3672.436,,,,,2018-06-16 11:44:53.124
1.862366,266,2050,-85,916,-4477,-218,12332.347,1323.443,-10135.776,3444.301,507,249,161,,2018-06-16 11:44:53.144
1.882294,125,1585,59,1836,-812,-35,12534.649,1300.21,-9854.587,3537.593,,,,,2018-06-16 11:44:53.164
1.902283,-130,1333,-70,1998,868,201,12669.913,1271.72,-9632.182,3675.938,,,,,2018-06-16 11:44:53.184
1.922272,-150,1224,-2,1211,231,717,12762.133,1120.739,-9534.752,3660.031,,,,,2018-06-16 11:44:53.204
1.969666,236,1061,296,745,-1077,-90,12843.493,956.475,-9526.485,3436.767,,,,,2018-06-16 11:44:53.252
1.970032,389,1075,141,213,-1625,-695,12826.915,862.059,-9626.702,3238.698,,,,,2018-06-16 11:44:53.252
1.982209,389,1284,130,-820,-715,-365,12699.74,981.849,-9770.796,3274.073,529,244,156,,2018-06-16 11:44:53.264
2.002198,265,1618,57,-1373,1393,163,12467.394,1381.768,-9901.688,3612.036,,,,,2018-06-16 11:44:53.284
2.022187,165,1993,-168,-1925,3712,572,12107.546,2019.273,-10013.489,4182.739,,,,,2018-06-16 11:44:53.304
2.042206,44,2249,-324,-2378,5327,931,11639.637,2762.753,-10059.639,4911.731,,,,,2018-06-16 11:44:53.324
2.062165,-179,2152,-546,-2358,6319,1375,11105.169,3554.981,-9978.37,5736.275,550,208,125,35191,2018-06-16 11:44:53.344
2.082184,-488,2144,-460,-1895,6989,1311,10612.042,4339.887,-9732.522,6501.028,,,,,2018-06-16 11:44:53.364
2.102173,-370,2035,-673,-1198,6544,579,10262.379,5035.45,-9444.315,6969.086,,,,,2018-06-16 11:44:53.384
2.122132,-388,1953,-576,-932,4360,-722,10185.263,5423.986,-9304.946,6978.124,,,,,2018-06-16 11:44:53.404
2.142121,74,2578,-573,-591,281,-1576,10418.679,5404.202,-9400.662,6504.514,,,,,2018-06-16 11:44:53.424
2.16211,359,2388,-439,-352,-3713,-2196,10850.44,5021.757,-9626.033,5729.293,532,233,145,,2018-06-16 11:44:53.444
2.182129,375,2425,-73,248,-5904,-1896,11274.423,4454.046,-9816.468,5012.11,,,,,2018-06-16 11:44:53.464
2.202088,582,2315,-52,660,-5171,-1062,11519.729,4104.027,-9870.625,4632.386,,,,,2018-06-16 11:44:53.484
2.222077,522,2092,-2,689,-1716,-369,11538.419,4140.337,-9758.389,4788.711,,,,,2018-06-16 11:44:53.504
2.242096,223,2122,20,701,2323,703,11326.776,4520.412,-9512.434,5405.464,,,,,2018-06-16 11:44:53.524
2.262085,3,2130,-75,376,5392,1392,10915.657,5097.647,-9200.88,6216.24,457,250,157,,2018-06-16 11:44:53.544
2.282074,-164,2049,-315,-100,6482,1647,10413.929,5686.968,-8882.84,6981.336,,,,,2018-06-16 11:44:53.564
2.302033,-163,1926,-458,-399,6044,1436,9969.539,6174.033,-8583.264,7566.545,,,,,2018-06-16 11:44:53.584
2.322022,-86,1895,-400,-237,4617,929,9674.868,6490.308,-8344.852,7941.768,,,,,2018-06-16 11:44:53.604
2.342011,36,1949,-267,-21,2817,447,9528.908,6657.369,-8204.865,8123.728,,,,,2018-06-16 11:44:53.624
2.362,134,2125,-218,-41,1283,123,9445.84,6757.035,-8155.527,8187.88,473,251,144,,2018-06-16 11:44:53.644
2.381989,229,2181,-284,-309,760,23,9321.653,6902.386,-8100.271,8263.467,,,,,2018-06-16 11:44:53.664
2.401978,196,2254,-377,-423,1505,108,9106.074,7117.835,-7954.502,8460.329,,,,,2018-06-16 11:44:53.684
2.421967,126,2213,-328,-163,2560,432,8840.228,7325.439,-7750.43,8749.546,,,,,2018-06-16 11:44:53.704
2.441986,16,2125,-334,97,2690,726,8579.258,7471.738,-7599.48,9014.033,,,,,2018-06-16 11:44:53.724
2.489655,24,2138,-151,-99,1993,865,8368.694,7556.235,-7538.289,9191.186,412,234,135,,2018-06-16 11:44:53.772
2.489991,4,2110,-210,-254,1206,757,8174.227,7659.107,-7523.331,9292.739,,,,,2018-06-16 11:44:53.772
2.501923,24,2220,-287,-655,1172,510,7954.916,7841.396,-7473.392,9371.001,,,,,2018-06-16 11:44:53.784
2.521912,77,2299,-396,-910,1695,220,7702.186,8088.901,-7364.993,9457.184,,,,,2018-06-16 11:44:53.804
2.541901,81,2315,-458,-919,2027,112,7465.93,8303.542,-7259.582,9541.748,,,,,2018-06-16 11:44:53.824
2.56189,35,2464,-375,-730,1620,185,7283.995,8448.101,-7208.794,9593.837,385,248,134,35205,2018-06-16 11:44:53.844
2.581879,-28,2475,-335,-673,949,233,7161.706,8545.316,-7216.957,9593.669,,,,,2018-06-16 11:44:53.864
2.601868,50,2466,-338,-623,384,135,7094.934,8629.063,-7244.287,9547.613,,,,,2018-06-16 11:44:53.884
2.621857,81,2495,-355,-711,109,-91,7047.981,8714.221,-7289.544,9470.284,,,,,2018-06-16 11:44:53.904
2.641846,134,2482,-439,-769,-39,-106,7006.55,8791.516,-7333.762,9395.152,,,,,2018-06-16 11:44:53.924
2.661866,-26627,1866,-32767,-653,0,-104,6957.733,8851.992,-7364.985,9350.112,381,251,163,,2018-06-16 11:44:53.944
2.681824,184,2116,-822,-511,140,57,7298.261,8679.82,-7617.857,9044.323,,,,,2018-06-16 11:44:53.964
2.701813,44,1851,-576,-1187,-2631,-94,7315.147,8634.528,-7795.828,8921.55,,,,,2018-06-16 11:44:53.984
2.721863,1032,1754,-73,-540,199,378,7325.159,8791.031,-7615.425,8916.308,,,,,2018-06-16 11:44:54.004
2.741791,256,1908,-53,2,995,-1563,7278.063,8879.326,-7536.783,8934.187,,,,,2018-06-16 11:44:54.024
2.76178,518,1653,-360,-102,222,-28,7255.113,8860.91,-7619.643,8900.791,371,268,186,,2018-06-16 11:44:54.044
2.781769,394,1456,-349,-234,-657,639,7192.372,8711.172,-7801.806,8941.617,,,,,2018-06-16 11:44:54.064
2.801758,59,1434,-193,77,-403,1588,6982.221,8556.943,-7881.681,9183.781,,,,,2018-06-16 11:44:54.084
2.821747,-21,1281,-247,590,1438,2042,6645.841,8502.016,-7748.656,9588.653,,,,,2018-06-16 11:44:54.104
2.841767,-81,1089,-53,886,2758,1678,6344.983,8458.962,-7566.503,9968.481,,,,,2018-06-16 11:44:54.124
2.861725,-231,1044,-223,741,2038,1361,6154.885,8409.077,-7530.221,10155.591,357,268,219,,2018-06-16 11:44:54.144
2.881714,-96,1158,-177,33,508,938,6108.535,8378.043,-7596.657,10159.745,,,,,2018-06-16 11:44:54.164
2.901673,-188,1344,-181,-258,-416,205,6142.086,8396.848,-7645.751,10086.904,,,,,2018-06-16 11:44:54.184
2.921692,305,2216,-954,-280,-357,-413,5983.038,8633,-7269.975,10259.505,,,,,2018-06-16 11:44:54.204
2.941742,-514,2203,351,-105,3945,-1297,5867.183,9022.668,-6775.796,10329.164,,,,,2018-06-16 11:44:54.224
2.96167,-372,2351,607,-693,2207,-2066,5966.436,9352.506,-6535.444,10131.914,,,,,2018-06-16 11:44:54.244
2.993103,318,2832,-581,-1262,-154,-2381,6275.686,9547.121,-6578.05,9727.946,394,284,197,,2018-06-16 11:44:54.275
3.001648,484,2808,-178,-1456,-2465,-2050,6624.495,9580.454,-6823.725,9284.566,,,,,2018-06-16 11:44:54.284
3.021637,417,2716,-532,-1274,-3082,-916,6859.189,9452.525,-7171.33,8978.236,,,,,2018-06-16 11:44:54.304
3.041626,841,2255,-102,-543,-2696,412,6981.905,9307.836,-7312.835,8920.485,,,,,2018-06-16 11:44:54.324
3.061615,-91,2098,-278,721,-466,-216,6845.42,9289.7,-7177.134,9152.369,394,284,197,35164,2018-06-16 11:44:54.344
3.081665,-151,2033,-87,914,2338,864,6546.512,9378.768,-6861.774,9514.902,380,277,192,,2018-06-16 11:44:54.364
3.101593,8,1904,-181,730,3287,402,6301.865,9523.094,-6588.765,9727.321,,,,,2018-06-16 11:44:54.384
3.121582,6833,2958,10905,-77,1870,-31,6220.668,9609.86,-6555.28,9716.872,,,,,2018-06-16 11:44:54.404
3.141602,-6725,8750,827,-623,-124,-159,6725.237,9597.825,-6724.33,9266.7,,,,,2018-06-16 11:44:54.424
3.16156,278,1980,-175,155,-5817,-984,7230.797,9086.852,-7297.948,8962.147,,,,,2018-06-16 11:44:54.444
3.181549,755,1586,-538,124,-4873,1470,7400.185,8600.527,-7762.058,8913.702,322,277,229,,2018-06-16 11:44:54.464
3.201538,-701,2370,760,1211,-1941,2315,7337.904,8248.648,-7830.029,9232.607,,,,,2018-06-16 11:44:54.484
3.221497,625,540,-41,1826,1019,1957,7112.951,8188.411,-7556.371,9679.491,,,,,2018-06-16 11:44:54.503
3.241516,375,2018,-85,1268,3169,806,6877.806,8308.068,-7222.905,9996.842,,,,,2018-06-16 11:44:54.524
3.261505,199,1997,-334,556,2661,167,6665.367,8441.378,-6905.502,10250.146,,,,,2018-06-16 11:44:54.544
3.281494,173,2022,-401,465,2811,66,6446.756,8574.697,-6577.356,10492.27,330,258,219,,2018-06-16 11:44:54.563
3.301453,136,1953,-503,469,2588,50,6262.687,8688.131,-6291.738,10683.846,,,,,2018-06-16 11:44:54.583
3.321472,163,2056,-602,295,2093,-67,6136.752,8791.995,-6077.928,10795.152,,,,,2018-06-16 11:44:54.603
3.341431,102,2014,-638,3,1349,-197,6104.478,8846.733,-5996.212,10814.413,,,,,2018-06-16 11:44:54.623
3.36142,133,2031,-526,-44,173,-230,6176.412,8837.583,-6038.812,10757.195,,,,,2018-06-16 11:44:54.643
3.381409,158,2014,-422,-131,-910,-256,6311.563,8797.6,-6172.794,10634.775,379,261,161,,2018-06-16 11:44:54.663
3.401398,189,2035,-225,-289,-1440,-306,6475.182,8748.07,-6333.594,10481.617,,,,,2018-06-16 11:44:54.683
3.421418,257,2029,-148,-312,-1492,-363,6602.286,8732.821,-6447.773,10344.53,,,,,2018-06-16 11:44:54.703
3.441376,210,2034,-97,-341,-888,-425,6657.542,8786.091,-6457.919,10257.312,,,,,2018-06-16 11:44:54.723
3.461396,159,2113,-235,-357,105,-534,6621.092,8908.308,-6364.12,10234.09,,,,,2018-06-16 11:44:54.743
3.481354,97,2089,-256,-363,949,-421,6532.361,9028.513,-6249.405,10256.441,351,252,162,,2018-06-16 11:44:54.763
3.539643,56,2044,-233,-240,944,-180,6445.671,9122.394,-6165.298,10279.095,,,,,2018-06-16 11:44:54.822
3.539978,55,2055,-333,-308,760,-102,6360.211,9228.222,-6112.438,10269.428,,,,,2018-06-16 11:44:54.822
3.541321,42,2023,-300,-574,567,-121,6300.541,9337.076,-6114.272,10206.533,351,252,162,35189,2018-06-16 11:44:54.823
3.56131,23,2140,-287,-846,151,-163,6248.883,9450.55,-6178.13,10094.786,,,,,2018-06-16 11:44:54.843
3.581299,25,1937,-108,-1115,-192,-24,6217.049,9525.248,-6323.568,9953.183,343,260,166,,2018-06-16 11:44:54.863
3.601288,102,2078,-42,-1126,-723,205,6187.154,9578.692,-6505.81,9801.92,,,,,2018-06-16 11:44:54.883
3.621277,-300,2645,-2570,-1181,-695,300,6291.91,9505.71,-6689.657,9681.8,,,,,2018-06-16 11:44:54.903
3.641266,627,3060,-274,-257,-814,-187,6302.196,9606.882,-6590.233,9643.361,,,,,2018-06-16 11:44:54.923
3.661255,-175,2222,-65,-197,1089,-940,6259.133,9696.319,-6330.431,9755.292,,,,,2018-06-16 11:44:54.943
3.681244,179,2274,-259,580,1607,-757,6321.27,9768.163,-6134.578,9768.67,326,260,176,,2018-06-16 11:44:54.963
3.701233,406,2368,-320,479,-426,-1047,6625.442,9642.447,-6228.174,9631.822,,,,,2018-06-16 11:44:54.983
3.721314,178,2412,-392,378,-2449,-592,6839.91,9516.613,-6367.477,9515.271,,,,,2018-06-16 11:44:55.003
3.741211,1050,2496,509,151,-1197,-172,6914.404,9451.086,-6376.857,9520.457,,,,,2018-06-16 11:44:55.023
3.7612,-235,2179,-184,503,53,44,6720.981,9366.745,-6293.125,9794.106,,,,,2018-06-16 11:44:55.043
3.781189,-97,1996,97,1464,1988,1248,6399.655,9387.319,-5991.591,10171.475,345,261,233,,2018-06-16 11:44:55.063
3.801178,75,1758,339,994,3305,1166,6072.302,9406.009,-5782.851,10471.303,,,,,2018-06-16 11:44:55.083
3.821167,-231,2269,-180,318,1959,1117,5707.674,9505.157,-5818.17,10566.871,,,,,2018-06-16 11:44:55.103
3.841156,-175,1775,-647,-1135,1169,1674,5347.234,9627.12,-5857.513,10623.117,,,,,2018-06-16 11:44:55.123
3.861145,270,1882,-69,-1019,1757,988,5032.947,9741.446,-5677.938,10768.942,,,,,2018-06-16 11:44:55.143
3.881134,-1282,3784,-9160,265,2495,490,4625.758,9942.615,-5356.246,10931.277,324,252,220,,2018-06-16 11:44:55.163
3.901123,-297,1916,-351,-723,3601,163,4416.798,10116.96,-5159.313,10952.44,,,,,2018-06-16 11:44:55.183
3.921112,353,1882,-553,-1207,1149,-560,4395.185,10336.973,-5051.662,10804.882,,,,,2018-06-16 11:44:55.203
3.941101,-19,2180,-287,-1172,321,-902,4351.123,10449.609,-4994.663,10740.679,,,,,2018-06-16 11:44:55.223
3.96109,220,2156,-599,-374,772,-52,4192.722,10553.552,-4765.747,10805.865,,,,,2018-06-16 11:44:55.243
3.981079,-17,2102,-665,207,2093,-373,4001.939,10581.69,-4487.897,10968.434,336,257,206,,2018-06-16 11:44:55.263
4.001068,-91,1797,-302,667,1927,-14,4013.229,10500.034,-4416.092,11071.443,,,,,2018-06-16 11:44:55.283
4.021057,32,1756,-614,530,189,-155,4072.91,10436.666,-4333.26,11142.069,,,,,2018-06-16 11:44:55.303
4.041046,55,1566,-235,804,37,-421,4201.538,10310.669,-4250.202,11243.149,,,,,2018-06-16 11:44:55.323
4.061035,-56,1691,-387,1157,-124,-526,4300.692,10213.896,-4090.848,11352.566,336,257,206,35185,2018-06-16 11:44:55.343
4.081024,-101,1979,-469,1228,600,-748,4364.432,10130.494,-3751.838,11518.853,324,277,239,,2018-06-16 11:44:55.363
4.101013,-91,2199,-550,1701,1579,-1333,4494.126,10019.385,-3272.949,11710.593,,,,,2018-06-16 11:44:55.383
4.120972,-691,1997,902,2202,1277,-2048,4689.825,9458.105,-3375.11,12066.227,,,,,2018-06-16 11:44:55.403
4.140961,7362,13180,-3805,4808,-3022,1154,4935.611,9012.935,-3421.649,12293.677,,,,,2018-06-16 11:44:55.423
4.16095,609,2673,-697,2666,-619,-661,5147.881,8590.684,-3365.23,12522.385,,,,,2018-06-16 11:44:55.443
4.180939,-265,1684,-407,2752,-718,-138,5299.373,8226.662,-3254.5,12731.156,301,273,221,,2018-06-16 11:44:55.463
4.200959,32,1302,761,2440,-115,-362,5466.035,7940.66,-3076.953,12885.502,,,,,2018-06-16 11:44:55.483
4.220917,194,1342,674,2156,-138,-741,5680.958,7675.603,-2980.224,12975.575,,,,,2018-06-16 11:44:55.503
4.240937,-103,1630,-216,1756,-899,-783,5914.15,7440.649,-2994.102,13005.013,,,,,2018-06-16 11:44:55.523
4.260895,251,1747,677,1270,-1198,-669,6080.287,7254.281,-3022.461,13027.113,,,,,2018-06-16 11:44:55.543
4.280915,700,2228,-1302,975,-617,-315,6104.754,7142.994,-2955.036,13092.471,300,233,164,,2018-06-16 11:44:55.563
4.300965,562,2595,-2012,700,514,143,5981.831,7128.727,-2785.463,13193.77,,,,,2018-06-16 11:44:55.583
4.320893,-352,1467,431,535,1482,468,5779.208,7167.98,-2593.105,13301.581,,,,,2018-06-16 11:44:55.603
4.340882,579,589,3743,278,1580,749,5575.42,7167.191,-2464.774,13412.919,,,,,2018-06-16 11:44:55.623
4.360871,18,2837,-4606,301,914,878,5418.276,7146.847,-2459.424,13488.941,,,,,2018-06-16 11:44:55.643
4.380829,-492,2616,-4048,227,152,863,5348.296,7043.805,-2538.924,13556.173,297,189,78,,2018-06-16 11:44:55.663
4.400818,-1720,2764,-4167,480,-605,675,5321.239,6884.067,-2586.634,13639.603,,,,,2018-06-16 11:44:55.683
4.420838,-1142,1353,-1602,1168,907,298,5245.62,6683.933,-2450.795,13792.663,,,,,2018-06-16 11:44:55.703
4.440796,-1159,1429,-1589,2303,416,22,5565.017,6406.742,-2484.621,13792.981,,,,,2018-06-16 11:44:55.723
4.460816,1893,976,-1995,1376,-1441,-1432,5773.866,6081.523,-2436.834,13862.713,,,,,2018-06-16 11:44:55.743
4.480774,-1249,2120,-4424,2123,-329,-313,5827.897,5746.598,-2307.345,14004.421,266,155,40,,2018-06-16 11:44:55.763
4.500763,492,1036,-2841,2243,-132,-27,5964.101,5374.333,-2188.361,14113.559,,,,,2018-06-16 11:44:55.783
4.520752,469,2648,-6693,2324,-409,-530,5945.719,4992.425,-2003.564,14287.941,,,,,2018-06-16 11:44:55.803
4.540985,628,1,1394,2559,686,872,5828.489,4687.545,-1801.076,14465.379,,,,,2018-06-16 11:44:55.823
4.56073,-868,989,-1577,1799,558,624,5752.043,4491.612,-1690.51,14571.103,266,155,40,35210,2018-06-16 11:44:55.843
4.58075,2260,-67,2567,1120,312,596,5630.407,4391.241,-1608.405,14658.24,196,354,-242,,2018-06-16 11:44:55.863
4.600708,783,2264,-5789,427,608,957,5368.507,4366.476,-1524.804,14772.387,,,,,2018-06-16 11:44:55.883
4.620697,-103,1593,-3572,260,1034,1746,4910.288,4406.821,-1399.412,14931.379,,,,,2018-06-16 11:44:55.903
4.640686,467,2024,-3439,-114,1669,2671,4402.45,4552.276,-1283.53,15056.002,,,,,2018-06-16 11:44:55.923
4.660675,-274,2270,-3211,-863,1732,2630,3828.356,4821.375,-1150.132,15139.705,,,,,2018-06-16 11:44:55.943
4.680695,-920,2266,-3666,-1619,2145,2999,3163.06,5248.66,-914.05,15167.286,440,158,-70,,2018-06-16 11:44:55.963
4.700653,-198,1066,1603,-2361,3562,2891,2464.863,5814.696,-430.422,15111.714,,,,,2018-06-16 11:44:55.983
4.720703,-444,413,6590,-3045,4787,2431,1916.339,6380.29,-155.819,14967.655,,,,,2018-06-16 11:44:56.003
4.740662,-2200,3453,-11945,-3163,1277,1863,1741.4,6975.114,-207.558,14720.994,,,,,2018-06-16 11:44:56.023
4.76062,413,1561,159,-3797,131,240,1785.309,7546.027,-222.65,14431.078,,,,,2018-06-16 11:44:56.043
4.780609,-434,2505,346,-3574,85,-552,1764.228,7942.308,-248.406,14219.035,346,71,5,,2018-06-16 11:44:56.063
4.800598,-1136,1675,1544,-2001,667,468,1623.387,8167.447,-194.445,14108.687,,,,,2018-06-16 11:44:56.083
4.820587,386,2633,-670,-846,1237,28,1560.786,8308.114,43.257,14034.698,,,,,2018-06-16 11:44:56.103
4.840576,401,2501,-914,-915,1695,-446,1433.382,8441.581,112.208,13968.105,,,,,2018-06-16 11:44:56.123
4.860565,308,2286,-90,-679,-90,1025,1290.531,8476.867,-296.434,13957.966,,,,,2018-06-16 11:44:56.143
4.880555,45,2314,-378,-582,-2021,2313,1036.926,8609.247,-828.737,13876.392,289,169,90,,2018-06-16 11:44:56.163
4.900544,-82,2102,-148,-1229,-1484,2907,650.787,8749.332,-1156.732,13788.512,,,,,2018-06-16 11:44:56.183
4.920533,-180,1881,-111,-1158,376,2636,159.639,8928.664,-1158.032,13687.508,,,,,2018-06-16 11:44:56.203
4.940522,-60,2261,-438,-1412,1867,2190,-324.213,9191.052,-1002.024,13522.235,,,,,2018-06-16 11:44:56.223
4.960511,-128,2466,-594,-2517,2305,1158,-614.457,9538.141,-952.512,13273.073,,,,,2018-06-16 11:44:56.243
4.9805,770,3288,-1980,-2342,81,1208,32.272,10396.14,-2020.778,12500.831,286,222,163,,2018-06-16 11:44:56.262
5.000489,691,2263,-438,-3966,-12913,523,991.209,10549.345,-3407.171,12023.12,,,,,2018-06-16 11:44:56.282
5.020478,612,2404,-254,-1247,-5073,1034,453.757,10544.544,-2995.554,12168.349,,,,,2018-06-16 11:44:56.302
5.040467,-382,2553,-726,-70,8757,488,-931.431,10422.208,-1723.802,12488.948,,,,,2018-06-16 11:44:56.322
5.060456,-211,2171,293,753,10478,1978,-1953.561,10238.384,-1047.322,12597.525,286,222,163,35179,2018-06-16 11:44:56.342
5.080445,-367,2267,-734,-398,4355,2269,-2314.728,10470.436,-1190.936,12330.008,364,249,196,,2018-06-16 11:44:56.362
5.100434,-80,1921,-335,-2422,-1837,2109,-2115.764,10799.387,-1777.151,12007.245,,,,,2018-06-16 11:44:56.382
5.120423,169,1707,-459,-1696,-3976,1026,-1943.863,11006.105,-2090.765,11796.236,,,,,2018-06-16 11:44:56.402
5.140412,-6,1783,-364,-1055,-920,289,-2095.38,11040.684,-1986.492,11755.933,,,,,2018-06-16 11:44:56.422
5.160401,-277,1899,-253,-196,1744,268,-2314.212,11007.713,-1759.001,11782.021,,,,,2018-06-16 11:44:56.442
5.180359,-174,2134,-278,-182,1519,-149,-2258.714,11085.252,-1643.025,11736.749,383,278,280,,2018-06-16 11:44:56.462
5.200379,16,2315,-323,-840,-771,-912,-1872.981,11294.534,-1730.606,11591.629,,,,,2018-06-16 11:44:56.482
5.220368,203,2511,-448,-1250,-2681,-1366,-1391.98,11509.934,-1841.941,11429.195,,,,,2018-06-16 11:44:56.502
5.240357,230,2647,-528,-1046,-2260,-1546,-1077.005,11628.921,-1794.014,11350.119,,,,,2018-06-16 11:44:56.522
5.260346,185,2587,-377,-340,-529,-1397,-955.396,11634.724,-1612.315,11382.28,,,,,2018-06-16 11:44:56.542
5.280304,218,2370,-323,282,525,-1112,-883.667,11604.409,-1463.815,11438.947,429,273,305,,2018-06-16 11:44:56.562
5.300293,147,2177,-268,282,47,-709,-749.524,11597.163,-1508.695,11450.035,,,,,2018-06-16 11:44:56.582
5.320313,81,2017,-368,44,-1157,-137,-578.382,11609.644,-1674.039,11424.302,,,,,2018-06-16 11:44:56.602
5.340302,1,1937,-452,-29,-1314,0,-471.564,11600.694,-1744.848,11427.705,,,,,2018-06-16 11:44:56.622
5.360291,-87,1877,-317,180,-292,-215,-421.699,11546.179,-1672.745,11495.446,,,,,2018-06-16 11:44:56.642
5.380249,-6,1953,-288,596,296,-620,-302.876,11486.854,-1561.089,11574.061,408,273,333,,2018-06-16 11:44:56.662
5.400269,68,1957,-250,536,-330,-1020,8.264,11458.011,-1603.338,11600.804,,,,,2018-06-16 11:44:56.682
5.420227,221,1869,-234,308,-2096,-1071,495.048,11444.085,-1840.795,11568.696,,,,,2018-06-16 11:44:56.702
5.440247,293,1842,-268,144,-3290,-949,983.842,11411.786,-2157.743,11514.459,,,,,2018-06-16 11:44:56.722
5.460205,193,1777,-276,212,-3102,-520,1312.422,11340.268,-2406.8,11502.983,,,,,2018-06-16 11:44:56.742
5.480225,132,1710,-228,511,-1814,-187,1472.978,11248.419,-2506.51,11552.327,372,274,335,,2018-06-16 11:44:56.762
5.500183,65,1708,-190,681,-700,-136,1578.561,11164.893,-2567.785,11605.827,,,,,2018-06-16 11:44:56.782
5.520264,-26,1776,-210,513,-762,-62,1738.349,11110.569,-2692.874,11606.776,,,,,2018-06-16 11:44:56.802
5.540192,94,1811,-316,158,-1423,-170,1990.388,11083.919,-2871.277,11548.866,,,,,2018-06-16 11:44:56.822
5.56015,-5,1935,-325,-50,-1936,-417,2273.424,11053.748,-3072.526,11473.5,372,274,335,35132,2018-06-16 11:44:56.842
5.580139,241,1987,-304,-49,-1949,-320,2507.773,11017.352,-3226.884,11417.166,351,281,316,,2018-06-16 11:44:56.862
5.600128,201,1978,-249,107,-1386,-273,2634.352,10965.795,-3335.389,11407.109,,,,,2018-06-16 11:44:56.882
5.620117,185,1973,-246,235,-707,86,2646.026,10923.228,-3384.975,11430.618,,,,,2018-06-16 11:44:56.902
5.640137,49,2030,-291,182,-16,293,2580.119,10893.046,-3408.227,11467.517,,,,,2018-06-16 11:44:56.922
5.660096,24,2066,-377,150,231,464,2513.855,10864.699,-3422.309,11504.872,,,,,2018-06-16 11:44:56.942
5.680115,-55,2088,-371,176,174,337,2482.563,10819.276,-3426.613,11553.09,333,285,294,,2018-06-16 11:44:56.962
5.700074,-58,2090,-398,402,108,159,2500.645,10759.412,-3385.16,11617.14,,,,,2018-06-16 11:44:56.982
5.720124,55,2126,-322,607,86,-262,2602.438,10685.986,-3348.918,11672.926,,,,,2018-06-16 11:44:57.002
5.740052,3,2214,-327,643,-493,-441,2774.901,10599.504,-3389.158,11700.405,,,,,2018-06-16 11:44:57.022
5.760041,93,2167,-275,601,-981,-434,2950.943,10510.176,-3404.598,11733.383,,,,,2018-06-16 11:44:57.042
5.78003,4112,7295,-8853,745,-508,-554,3033.426,10424.199,-3303.39,11817.675,341,286,285,,2018-06-16 11:44:57.062
5.800049,-1536,1755,1576,911,527,-433,2636.368,9390.153,-3027.69,12811.833,,,,,2018-06-16 11:44:57.082
5.820008,-902,1810,468,5684,5150,3117,1786.68,9158.68,-2063.215,13308.076,,,,,2018-06-16 11:44:57.102
5.839997,-747,1444,952,1700,7633,934,1147.865,9118.953,-1173.395,13512.427,,,,,2018-06-16 11:44:57.122
5.859986,-203,1466,1972,713,4481,474,887.532,9332.074,-647.986,13421.632,,,,,2018-06-16 11:44:57.142
5.879975,-649,2160,-643,-2122,6303,-1415,675.209,10142.896,-38.728,12849.112,334,284,262,,2018-06-16 11:44:57.162
5.899964,-204,3013,-1335,-6375,616,-1632,1381.462,10951.773,-193.084,12105.715,,,,,2018-06-16 11:44:57.182
5.919953,434,3045,-1216,-5814,-4476,-3420,2376.161,11351.199,-302.574,11569.27,,,,,2018-06-16 11:44:57.202
5.939942,905,2662,-979,-2582,-3224,-4315,2954.872,11374.627,5.372,11415.865,,,,,2018-06-16 11:44:57.222
5.959931,300,2463,-128,852,80,-3096,3020.514,11156.945,450.453,11603.085,,,,,2018-06-16 11:44:57.242
5.97992,-592,931,-941,2383,1881,-1384,2929.937,10986.696,881.108,11762.953,352,266,184,,2018-06-16 11:44:57.262
5.999909,-155,1795,-371,915,1131,-1166,3550.459,10802.894,547.085,11782.522,,,,,2018-06-16 11:44:57.282
6.019898,-27,1459,-1836,140,-7296,-1211,4743.099,10570.755,-369.099,11578.483,,,,,2018-06-16 11:44:57.302
6.039887,1049,2012,-1481,-1912,-8162,-2315,5488.357,10493.734,-694.06,11301.026,,,,,2018-06-16 11:44:57.322
6.059876,256,2370,-1712,-731,-1268,-1906,5282.887,10612.118,-92.988,11309.325,352,266,184,35144,2018-06-16 11:44:57.342
6.079865,146,2387,-1553,1441,5651,-1472,4445.838,10736.914,1203.979,11486.471,271,255,307,,2018-06-16 11:44:57.362
6.099854,-495,2199,-535,2765,8467,-1315,3591.896,10593.72,2472.043,11713.06,,,,,2018-06-16 11:44:57.382
6.119843,-678,2109,284,3942,7060,-988,3139.573,10255.749,3178.782,11970.524,,,,,2018-06-16 11:44:57.402
6.139832,-1360,1443,845,3477,2484,-618,2930.048,9920.812,3590.047,12187.669,,,,,2018-06-16 11:44:57.422
6.159821,-1706,1788,1136,2391,1714,-923,2940.996,9687.138,3950.889,12261.15,,,,,2018-06-16 11:44:57.442
6.17981,-1195,1648,18,1503,-706,-1728,3550.56,9447.898,3783.359,12339.059,213,223,253,,2018-06-16 11:44:57.462
6.199799,-521,1717,-798,-410,-4431,-2824,4557.922,9130.355,3314.579,12381.879,,,,,2018-06-16 11:44:57.482
6.219788,-619,1074,-1234,-155,-6436,-3168,5564.33,8645.274,2668.938,12474.359,,,,,2018-06-16 11:44:57.502
6.239777,1780,1468,-2778,322,-6524,-2485,6324.637,8132.827,2126.361,12560.657,,,,,2018-06-16 11:44:57.522
6.259766,-1871,1509,-937,950,-4940,-1394,6541.176,7655.102,1936.48,12778.807,,,,,2018-06-16 11:44:57.542
6.279755,-88,1313,-813,2308,-2924,-8,6876.063,7066.106,1650.835,12980.757,142,180,318,,2018-06-16 11:44:57.562
6.299744,-349,1384,-1515,2383,-3581,-894,7106.448,6482.077,1417.312,13187.408,,,,,2018-06-16 11:44:57.582
6.319733,-1761,932,-1554,2540,-2968,-9,7272.137,5939.825,1178.164,13374.672,,,,,2018-06-16 11:44:57.602
6.339722,-1155,1211,-2145,1848,-2731,-265,7532.461,5667.849,1029.946,13360.844,,,,,2018-06-16 11:44:57.622
6.35968,-962,1222,-2087,219,-1439,-1323,7757.83,5615.249,945.384,13259.967,,,,,2018-06-16 11:44:57.642
6.3797,-584,1348,-1538,-528,-619,-1004,7839.211,5698.237,887.063,13180.494,129,140,198,,2018-06-16 11:44:57.662
6.399689,-916,1287,-1288,-774,7,-153,7867.034,5844.397,779.802,13106.492,,,,,2018-06-16 11:44:57.682
6.419678,-826,1148,-1618,-1422,-295,-185,8002.189,6018.132,558.419,12956.491,,,,,2018-06-16 11:44:57.702
6.439637,-546,1258,-1578,-1898,-1102,-702,8198.675,6154.48,261.708,12777.756,,,,,2018-06-16 11:44:57.722
6.459626,-485,1546,-1695,-1866,-1401,-657,8340.009,6273.778,-93.263,12629.754,,,,,2018-06-16 11:44:57.742
6.479645,-391,1623,-1781,-1872,-1592,-63,8395.78,6388.463,-500.299,12525.316,185,89,55,,2018-06-16 11:44:57.762
6.499604,-476,1688,-1549,-1936,-1479,547,8391.193,6524.458,-901.21,12435.536,,,,,2018-06-16 11:44:57.782
6.519593,-402,1894,-1296,-2068,-1364,594,8400.17,6679.729,-1358.923,12304.76,,,,,2018-06-16 11:44:57.802
6.539582,-322,1955,-1375,-2466,-1722,555,8411.733,6848.138,-1925.946,12127.321,,,,,2018-06-16 11:44:57.822
6.559571,-484,1976,-1500,-2905,-2193,719,8427.988,6991.599,-2527.043,11922.082,185,89,55,35169,2018-06-16 11:44:57.842
6.57956,-386,2203,-1279,-2783,-2323,618,8455.744,7097.462,-3089.999,11705.288,182,99,51,,2018-06-16 11:44:57.862
6.599579,-104,2215,-1017,-2521,-2311,456,8523.354,7160.126,-3673.377,11446.692,,,,,2018-06-16 11:44:57.882
6.619568,-182,1972,-515,-2657,-2837,322,8597.876,7221.622,-4327.79,11118.918,,,,,2018-06-16 11:44:57.902
6.639527,-174,1914,-844,-3264,-3152,196,8642.404,7325.003,-5039.08,10709.634,,,,,2018-06-16 11:44:57.922
6.659516,-241,1838,-687,-3415,-3158,279,8660.514,7380.004,-5678.389,10330.651,,,,,2018-06-16 11:44:57.942
6.679505,-178,1839,-477,-2847,-2838,343,8709.385,7362.529,-6236.405,9974.089,233,149,55,,2018-06-16 11:44:57.962
6.699494,-370,1631,-694,-2251,-2971,165,8795.902,7282.279,-6731.372,9629.36,,,,,2018-06-16 11:44:57.981
6.719483,-645,1696,-642,-1719,-2890,89,8887.192,7161.89,-7146.843,9331.838,,,,,2018-06-16 11:44:58.001
6.739533,-514,1840,-549,-1266,-2521,114,8986.209,7081.654,-7435.889,9068.694,,,,,2018-06-16 11:44:58.022
6.759461,-309,1957,-452,-957,-1894,-372,9089.614,7050.837,-7616.236,8837.023,,,,,2018-06-16 11:44:58.041
6.77948,40,1809,-131,-576,-1381,-558,9197.553,7038.675,-7739.409,8625.488,301,220,88,,2018-06-16 11:44:58.061
6.799439,11,1895,-288,-762,-1182,-659,9276.39,7024.127,-7909.292,8395.758,,,,,2018-06-16 11:44:58.081
6.819428,-78,2151,-424,-821,-1476,-462,9355.229,6972.351,-8101.169,8165.322,,,,,2018-06-16 11:44:58.101
6.839417,-211,2208,-600,-854,-1565,-324,9406.903,6967.821,-8268.687,7938.759,,,,,2018-06-16 11:44:58.121
6.859406,-96,1957,-300,-923,-1010,-610,9465.894,7034.065,-8344.122,7728.508,,,,,2018-06-16 11:44:58.141
6.879395,277,1681,-114,-711,-600,-1031,9529.722,7099.308,-8419.666,7505.257,348,274,155,,2018-06-16 11:44:58.161
6.899384,143,1839,-150,-851,-990,-709,9566.449,7037.76,-8629.347,7274.805,,,,,2018-06-16 11:44:58.181
6.919373,-351,1990,-308,-1115,-1814,81,9586.987,6909.134,-8899.694,7041.62,,,,,2018-06-16 11:44:58.201
6.939362,-222,1976,-157,-984,-1767,152,9649.481,6833.181,-9052.292,6832.758,,,,,2018-06-16 11:44:58.221
6.959351,-6,1843,155,-441,-1217,-456,9762.923,6783.802,-9109.275,6642.431,,,,,2018-06-16 11:44:58.241
6.97934,-224,1675,34,-47,-1263,-646,9898.459,6666.788,-9184.717,6453.747,351,296,178,,2018-06-16 11:44:58.261
6.999329,-580,2109,-363,7,-1632,-190,10025.494,6480.872,-9297.918,6282.668,,,,,2018-06-16 11:44:58.281
7.019318,-450,2324,-739,30,-1814,115,10149.441,6296.817,-9393.305,6127.004,,,,,2018-06-16 11:44:58.301
7.039307,-317,2133,-411,199,-1517,-36,10274.954,6190.317,-9405.758,6006.034,,,,,2018-06-16 11:44:58.321
7.059296,-23,1639,245,366,-843,-491,10384.963,6164.054,-9369.905,5898.923,351,296,178,35132,2018-06-16 11:44:58.341
7.079285,175,1776,265,182,-490,-624,10428.554,6174.656,-9380.375,5793.347,347,300,200,,2018-06-16 11:44:58.361
7.099274,154,1943,116,-321,-429,-404,10421.474,6170.719,-9457.79,5683.374,,,,,2018-06-16 11:44:58.381
7.119263,-79,1996,110,-666,-564,-196,10391.522,6165.09,-9577.793,5541.591,,,,,2018-06-16 11:44:58.401
7.139252,-101,1997,-11,-910,-647,-228,10360.262,6211.2,-9672.6,5381.655,,,,,2018-06-16 11:44:58.421
7.159241,-187,2060,41,-821,-416,-636,10350.149,6275.437,-9738.29,5205.232,,,,,2018-06-16 11:44:58.441
7.17923,-175,2295,-19,-785,-509,-675,10329.381,6327.044,-9821.991,5023.576,364,302,200,,2018-06-16 11:44:58.461
7.199219,-135,2294,58,-919,-513,-600,10304.067,6385.828,-9900.703,4843.439,,,,,2018-06-16 11:44:58.481
7.219208,-181,2179,268,-808,-481,-678,10311.864,6439.178,-9947.741,4656.213,,,,,2018-06-16 11:44:58.501
7.239197,-452,1982,298,-604,-636,-797,10331.558,6472.057,-10002.169,4445.606,,,,,2018-06-16 11:44:58.521
7.259186,-549,2138,183,-693,-774,-779,10340.286,6496.089,-10077.417,4214.31,,,,,2018-06-16 11:44:58.541
7.279175,-1048,2055,544,-923,-944,-724,10331.843,6530.328,-10159.04,3979.594,362,295,200,,2018-06-16 11:44:58.561
7.299134,350,2485,421,-861,-677,-820,10276.22,6674.274,-10228.077,3698.007,,,,,2018-06-16 11:44:58.581
7.319123,-196,2312,348,-1536,-756,-1324,10199.978,6694.464,-10392.623,3401.971,,,,,2018-06-16 11:44:58.601
7.339142,-467,2207,78,-1544,-1057,-422,10122.375,6664.761,-10564.155,3154.767,,,,,2018-06-16 11:44:58.621
7.359131,-552,1996,293,-1372,-1057,-265,10104.93,6624.899,-10657.528,2975.504,,,,,2018-06-16 11:44:58.641
7.37912,-440,1851,604,-440,-752,-247,10159.744,6575.84,-10665.317,2867.818,356,291,236,,2018-06-16 11:44:58.661
7.399109,-569,1975,423,252,-605,-146,10251.205,6493.816,-10642.668,2812.861,,,,,2018-06-16 11:44:58.681
7.419068,-619,1986,327,410,-752,12,10353.969,6388.934,-10624.91,2742.909,,,,,2018-06-16 11:44:58.701
7.439087,-623,1995,369,378,-944,-2,10457.892,6292.362,-10604.229,2650.367,,,,,2018-06-16 11:44:58.721
7.459046,-483,2123,357,323,-869,-228,10545.32,6235.851,-10576.971,2544.309,,,,,2018-06-16 11:44:58.741
7.479035,-439,2063,282,211,-706,-382,10614.761,6186.45,-10566.313,2417.259,329,291,269,,2018-06-16 11:44:58.761
7.499054,-600,2063,-28,-6,-861,-337,10674.216,6111.966,-10578.362,2288.814,,,,,2018-06-16 11:44:58.781
7.519043,-680,1880,110,-66,-859,-206,10728.018,6041.775,-10587.256,2179.913,,,,,2018-06-16 11:44:58.801
7.539032,-943,2041,-163,-57,-747,-192,10785.297,5970.754,-10586.719,2093.866,,,,,2018-06-16 11:44:58.821
7.558991,-823,1858,-129,314,-559,-14,10911.838,5879.734,-10512.164,2071.316,329,291,269,35117,2018-06-16 11:44:58.841
7.57901,-667,1836,46,810,-588,-89,11061.905,5821.193,-10392.574,2043.964,319,291,267,,2018-06-16 11:44:58.861
7.598969,-555,1834,225,1145,-428,-285,11219.069,5756.064,-10262.658,2028.176,,,,,2018-06-16 11:44:58.881
7.618988,-713,1912,-89,981,-572,-109,11352.841,5651.821,-10175.341,2016.872,,,,,2018-06-16 11:44:58.901
7.638947,-1116,1747,-92,835,-676,148,11448.678,5537.693,-10127.569,2032.12,,,,,2018-06-16 11:44:58.921
7.658966,-501,1975,683,245,-402,515,11551.929,5468.767,-10036.077,2087.605,,,,,2018-06-16 11:44:58.941
7.678925,-258,2164,14,1130,13,125,11610.025,5356.627,-10021.187,2127.228,308,283,249,,2018-06-16 11:44:58.961
7.698914,-1368,1804,-144,222,-764,801,11595.187,5199.477,-10133.333,2065.928,,,,,2018-06-16 11:44:58.981
7.718933,-277,1991,649,-826,-960,279,11612.475,5000.896,-10247.803,1886.642,,,,,2018-06-16 11:44:59.001
7.738922,-463,2295,-16,-772,-1213,-45,11557.8,4820.601,-10434.919,1651.355,,,,,2018-06-16 11:44:59.021
7.758881,-299,2158,437,-1342,-1761,97,11477.364,4636.273,-10637.702,1431.715,,,,,2018-06-16 11:44:59.041
7.77887,-569,2010,131,-1403,-1340,245,11368.84,4395.563,-10877.552,1242.091,311,273,221,,2018-06-16 11:44:59.061
7.798859,-593,1952,404,-1531,-1648,603,11252.236,4169.369,-11099.929,1109.306,,,,,2018-06-16 11:44:59.081
7.818848,-539,2015,-33,-1387,-1191,810,11129.403,3923.231,-11323.711,976.55,,,,,2018-06-16 11:44:59.101
7.838837,-679,1919,43,-1410,-1434,846,11033.342,3682.938,-11507.611,843.589,,,,,2018-06-16 11:44:59.121
7.858826,-505,1953,323,-1095,-1348,634,10966.243,3496.399,-11637.907,715.028,,,,,2018-06-16 11:44:59.141
7.878815,-638,1887,384,-763,-1052,311,10926.187,3416.275,-11704.484,622.888,323,271,214,,2018-06-16 11:44:59.161
7.898804,-856,1920,-339,-333,-477,-68,10900.045,3433.984,-11726.469,567.563,,,,,2018-06-16 11:44:59.181
7.918793,-678,1940,-140,-187,16,-365,10904.012,3470.529,-11715.81,482.896,,,,,2018-06-16 11:44:59.201
7.938782,1,1959,269,-154,-264,-535,10908.694,3477.953,-11714.075,346.591,,,,,2018-06-16 11:44:59.221
7.958832,-689,1934,633,-129,-627,-518,10914.01,3485.752,-11709.439,241.621,,,,,2018-06-16 11:44:59.241
7.97876,-936,2120,174,76,-110,-441,10946.454,3633.927,-11633.422,261.995,353,274,257,,2018-06-16 11:44:59.261
7.998749,-501,1919,317,595,790,-765,11032.037,3801.903,-11498.422,247.809,,,,,2018-06-16 11:44:59.281
8.018738,-559,2077,154,912,338,-907,11123.641,3919.848,-11370.528,214.28,,,,,2018-06-16 11:44:59.301
8.038727,-884,1987,174,811,183,-739,11194.274,4030.741,-11262.126,203.204,,,,,2018-06-16 11:44:59.321
8.058716,-590,1877,191,593,235,-593,11259.099,4089.136,-11177.125,137.727,353,274,257,35152,2018-06-16 11:44:59.341
8.078705,-826,1931,79,428,-400,-634,11309.041,4063.93,-11136.664,14.434,356,281,274,,2018-06-16 11:44:59.361
8.098694,-769,1987,83,19,-805,-358,11356.459,3922.141,-11138.087,-161.516,,,,,2018-06-16 11:44:59.381
8.118683,-835,1981,-3,-79,-1438,-51,11397.956,3750.903,-11150.279,-352.181,,,,,2018-06-16 11:44:59.401
8.138672,-953,1717,-65,-192,-1556,-64,11436.946,3539.431,-11170.774,-563.852,,,,,2018-06-16 11:44:59.421
8.158661,-829,2007,195,-374,-1992,53,11472.121,3267.95,-11200.772,-830.109,,,,,2018-06-16 11:44:59.441
8.17865,-731,2038,96,-365,-2023,17,11478.113,3036.409,-11240.865,-1054.288,326,277,255,,2018-06-16 11:44:59.461
8.198639,-795,1989,-15,-537,-1696,44,11453.438,2871.309,-11292.501,-1220.322,,,,,2018-06-16 11:44:59.481
8.218628,-285,1792,1411,-553,-1024,17,11430.64,2761.536,-11325.77,-1369.945,,,,,2018-06-16 11:44:59.501
8.238617,-270,1806,259,-380,-1017,-241,11418.27,2650.65,-11339.391,-1565.504,,,,,2018-06-16 11:44:59.521
8.258606,-679,1917,-387,-328,-925,-353,11425.388,2558.645,-11329.782,-1727.806,,,,,2018-06-16 11:44:59.541
8.278595,-842,1836,49,-148,-1015,-252,11422.673,2473.376,-11330.446,-1860.476,330,278,242,,2018-06-16 11:44:59.561
8.298584,-856,1835,8,-109,-883,-163,11428.056,2378.17,-11323.79,-1987.729,,,,,2018-06-16 11:44:59.581
8.318573,-435,1955,394,-176,-1000,-136,11414.606,2260.317,-11336.947,-2122.924,,,,,2018-06-16 11:44:59.601
8.338562,-735,1863,64,-364,-991,-20,11366.957,2164.301,-11387.224,-2207.862,,,,,2018-06-16 11:44:59.621
8.358551,-841,1893,-55,-559,-547,106,11303.663,2057.844,-11456.74,-2273.986,,,,,2018-06-16 11:44:59.641
8.37854,-833,1924,172,-754,-630,178,11221.165,1931.521,-11548.628,-2327.941,328,271,247,,2018-06-16 11:44:59.661
8.398529,-726,1924,168,-903,-582,382,11083.246,1823.317,-11694.364,-2348.288,,,,,2018-06-16 11:44:59.681
8.418518,-734,1914,278,-1364,-129,296,10919.271,1773.696,-11856.198,-2342.972,,,,,2018-06-16 11:44:59.701
8.438507,-610,1830,532,-1315,129,84,10717.456,1863.136,-12040.692,-2263.187,,,,,2018-06-16 11:44:59.721
8.458496,-1732,1240,-207,-1480,1322,-206,10488.947,1974.773,-12248.135,-2121.529,,,,,2018-06-16 11:44:59.740
8.478485,-768,2061,338,-1552,1172,179,10283.682,1941.89,-12435.127,-2068.331,329,267,239,,2018-06-16 11:44:59.760
8.498444,-676,1839,468,-1495,48,472,10125.562,1821.983,-12582.918,-2063.725,,,,,2018-06-16 11:44:59.780
8.518433,-644,1950,373,-1216,-309,592,9981.006,1650.13,-12717.156,-2089.488,,,,,2018-06-16 11:44:59.800
8.538452,-634,2036,370,-1155,-621,667,9883.952,1491.81,-12807.092,-2120.335,,,,,2018-06-16 11:44:59.820
8.558411,-500,2017,447,-717,-463,510,9864.638,1407.853,-12831.567,-2119.712,329,267,239,35128,2018-06-16 11:44:59.840
8.57843,-588,2034,445,63,-135,302,9931.886,1391.144,-12786.231,-2090.474,341,267,271,,2018-06-16 11:44:59.860
8.598419,-529,1996,699,613,64,108,10038.664,1401.669,-12706.045,-2062.133,,,,,2018-06-16 11:44:59.880
8.618409,-710,1938,704,836,61,97,10152.245,1407.781,-12620.043,-2029.782,,,,,2018-06-16 11:44:59.900
8.638367,-507,1994,695,863,-56,185,10289.286,1330.277,-12515.604,-2038.639,,,,,2018-06-16 11:44:59.920
8.658356,-624,2130,447,930,-458,487,10413.89,1275.264,-12421.888,-2014.13,,,,,2018-06-16 11:44:59.940
8.678376,-617,2064,582,853,-237,356,10534.887,1226.348,-12324.039,-2016.359,354,287,326,,2018-06-16 11:44:59.960
8.698334,-659,2100,579,745,-427,187,10608.358,1147.691,-12258.432,-2076.496,,,,,2018-06-16 11:44:59.980
8.718384,-554,2029,818,352,-669,143,10633.65,1067.415,-12233.599,-2135.558,,,,,2018-06-16 11:45:00.000
8.738343,-538,2073,360,18,-470,139,10607.946,991.499,-12253.159,-2187.22,,,,,2018-06-16 11:45:00.020
8.758301,-346,2008,677,-378,-504,79,10555.38,918.365,-12292.069,-2254.111,,,,,2018-06-16 11:45:00.040
8.77829,-690,1866,533,-451,-484,13,10503.382,866.488,-12328.509,-2317.64,358,289,318,,2018-06-16 11:45:00.060
8.798279,-902,1802,244,-427,-432,-30,10451.09,818.322,-12362.999,-2386.79,,,,,2018-06-16 11:45:00.080
8.818268,-811,1798,169,-305,-435,-109,10414.837,773.253,-12377.637,-2482.499,,,,,2018-06-16 11:45:00.100
8.838257,-770,1814,108,-256,-598,-177,10387.01,728.204,-12380.084,-2597.825,,,,,2018-06-16 11:45:00.120
8.858246,-806,1953,182,-197,-660,-232,10382.746,713.41,-12357.832,-2721.954,,,,,2018-06-16 11:45:00.140
8.878235,-737,1937,170,155,-534,-521,10389.636,762.394,-12318.731,-2856.312,371,285,308,,2018-06-16 11:45:00.160
8.898224,-708,1953,82,155,-421,-805,10401.099,827.477,-12274.136,-2985.535,,,,,2018-06-16 11:45:00.180
8.918213,-740,1996,168,297,-288,-742,10434.899,909.816,-12217.462,-3074.764,,,,,2018-06-16 11:45:00.200
8.938202,-808,1943,150,431,-129,-566,10490.792,976.78,-12151.776,-3123.932,,,,,2018-06-16 11:45:00.220
8.958191,-876,1908,206,629,-22,-340,10584.159,1026.335,-12062.361,-3139.599,,,,,2018-06-16 11:45:00.240
8.97818,-978,1853,116,840,-3,-129,10683.932,1071.867,-11968.739,-3144.745,371,287,305,,2018-06-16 11:45:00.260
8.998169,-1028,1833,5,784,19,-164,10762.604,1140.491,-11886.506,-3164.182,,,,,2018-06-16 11:45:00.280
9.018158,-1012,1839,-21,656,104,-389,10813.169,1242.886,-11822.209,-3193.967,,,,,2018-06-16 11:45:00.300
9.038147,-1040,1823,86,516,205,-550,10852.744,1370.211,-11762.566,-3227.684,,,,,2018-06-16 11:45:00.320
9.058136,-1046,1791,93,469,297,-649,10878.85,1496.382,-11714.068,-3259.983,371,287,305,35136,2018-06-16 11:45:00.340
9.078125,-1144,1726,257,415,246,-607,10898.07,1613.822,-11670.649,-3295.303,348,289,295,,2018-06-16 11:45:00.360
9.098114,-1115,1830,21,293,258,-606,10899.234,1741.032,-11646.604,-3311.727,,,,,2018-06-16 11:45:00.380
9.118103,-1127,1903,-45,287,418,-563,10898.914,1882.833,-11626.136,-3307.116,,,,,2018-06-16 11:45:00.400
9.138092,-1053,1772,150,141,608,-552,10878.809,2006.296,-11629.771,-3287.882,,,,,2018-06-16 11:45:00.420
9.158081,-1051,1762,243,17,512,-442,10843.828,2101.125,-11646.305,-3285.679,,,,,2018-06-16 11:45:00.440
9.178131,-1043,1718,35,-191,328,-367,10785.469,2145.725,-11688.086,-3300.546,348,286,276,,2018-06-16 11:45:00.460
9.198059,-1041,1722,54,-424,129,-225,10724.055,2172.489,-11740.959,-3295.489,,,,,2018-06-16 11:45:00.480
9.218048,-1060,1756,169,-445,241,-73,10654.402,2188.751,-11803.732,-3286.397,,,,,2018-06-16 11:45:00.500
9.238037,-1065,1692,242,-495,204,-71,10594.446,2206.624,-11851.024,-3298.059,,,,,2018-06-16 11:45:00.520
9.258026,-1034,1634,252,-370,52,-203,10540.461,2209.355,-11884.025,-3350.045,,,,,2018-06-16 11:45:00.540
9.278015,-1047,1614,254,-391,-240,-222,10495.643,2167.28,-11910.842,-3422.227,316,287,263,,2018-06-16 11:45:00.560
9.298004,-1063,1654,204,-398,-457,-43,10460.677,2096.099,-11935.968,-3485.5,,,,,2018-06-16 11:45:00.580
9.317993,-1063,1803,178,-335,-457,77,10437.235,2028.641,-11952.667,-3538.067,,,,,2018-06-16 11:45:00.600
9.337982,-1041,1801,298,-262,-425,70,10410.385,1964.365,-11969.487,-3596.105,,,,,2018-06-16 11:45:00.620
9.357972,-1048,1856,202,-333,-474,18,10372.544,1891.119,-11991.487,-3670.65,,,,,2018-06-16 11:45:00.640
9.377961,-1013,1883,206,-396,-550,20,10327.96,1803.705,-12021.572,-3741.274,317,269,285,,2018-06-16 11:45:00.660
9.39795,-1027,1939,264,-519,-537,97,10266.068,1709.282,-12067.117,-3808.716,,,,,2018-06-16 11:45:00.680
9.417939,-1029,1945,288,-624,-518,93,10192.815,1618.446,-12121.03,-3873.397,,,,,2018-06-16 11:45:00.700
9.437897,-1008,1955,208,-692,-460,86,10111.279,1530.305,-12184.7,-3922.847,,,,,2018-06-16 11:45:00.720
9.457886,-1004,2018,217,-715,-329,143,10047.124,1457.387,-12238.672,-3947.36,,,,,2018-06-16 11:45:00.740
9.477906,-1018,2028,291,-481,-218,163,10010.163,1397.656,-12270.442,-3964.2,311,273,294,,2018-06-16 11:45:00.760
9.497895,-998,2084,276,-299,-228,161,10004.849,1340.169,-12277.074,-3976.912,,,,,2018-06-16 11:45:00.780
9.517884,-949,2116,239,-33,-259,214,10035.543,1277.793,-12255.576,-3986.401,,,,,2018-06-16 11:45:00.800
9.537873,-848,2112,210,189,-326,291,10092.592,1207.139,-12214.436,-3990.663,,,,,2018-06-16 11:45:00.820
9.557862,-875,2158,118,335,-362,373,10166.793,1138.722,-12159.928,-3988.886,311,273,294,35111,2018-06-16 11:45:00.840
9.57782,-859,2030,217,425,-307,360,10231.83,1089.221,-12112.116,-3981.875,314,279,311,,2018-06-16 11:45:00.860
9.59784,-836,1975,205,372,-211,253,10293.018,1056.493,-12062.799,-3982.701,,,,,2018-06-16 11:45:00.880
9.617798,-796,2087,282,380,-227,185,10353.955,1009.818,-12013.888,-3984.697,,,,,2018-06-16 11:45:00.900
9.637818,-743,2086,194,354,-303,309,10422.339,933.71,-11961.187,-3983.525,,,,,2018-06-16 11:45:00.920
9.657776,-695,2041,187,403,-414,432,10502.074,859.553,-11901.19,-3970.481,,,,,2018-06-16 11:45:00.940
9.677765,-676,1996,202,476,-226,422,10587.705,828.928,-11837.556,-3939.68,318,287,324,,2018-06-16 11:45:00.960
9.697785,-683,1969,124,613,-56,271,10679.791,814.413,-11765.225,-3910.717,,,,,2018-06-16 11:45:00.980
9.717896,-659,2027,43,648,-83,296,10780.526,777.906,-11689.204,-3869.504,,,,,2018-06-16 11:45:01.000
9.737702,-623,2062,34,665,-98,482,10886.173,738.381,-11616.774,-3798.95,,,,,2018-06-16 11:45:01.020
9.757721,-575,2046,64,659,99,559,10979.796,721.781,-11562.047,-3698.325,,,,,2018-06-16 11:45:01.040
9.77771,-574,2014,29,547,315,550,11053.781,702.867,-11529.885,-3580.094,341,289,314,,2018-06-16 11:45:01.060
9.797699,-580,2025,14,347,337,661,11107.922,654.686,-11518.859,-3454.963,,,,,2018-06-16 11:45:01.080
9.817688,-565,2055,-35,178,255,768,11148.884,588.879,-11517.592,-3337.082,,,,,2018-06-16 11:45:01.100
9.837677,-555,2044,-25,99,187,749,11187.268,528.431,-11513.701,-3230.466,,,,,2018-06-16 11:45:01.120
9.857636,-594,2083,-20,150,183,660,11237.766,482.179,-11493.506,-3132.868,,,,,2018-06-16 11:45:01.140
9.877625,-641,2119,-107,310,170,592,11305.086,441.761,-11450.597,-3052.726,348,296,274,,2018-06-16 11:45:01.160
9.897614,-636,2121,-231,462,45,509,11386.374,401.889,-11385.326,-2999.794,,,,,2018-06-16 11:45:01.180
9.917603,-932,2141,-192,592,-61,406,11474.614,367.913,-11306.196,-2967.024,,,,,2018-06-16 11:45:01.200
9.937592,-736,2102,-272,633,-91,353,11559.452,348.513,-11228.005,-2936.826,,,,,2018-06-16 11:45:01.220
9.957581,-704,2107,-335,610,-6,257,11631.711,342.826,-11161.528,-2905.427,,,,,2018-06-16 11:45:01.240
9.97757,-585,2046,-258,492,72,227,11678.718,328.474,-11124.46,-2860.327,371,297,275,,2018-06-16 11:45:01.260
9.997559,-551,2046,-207,264,77,306,11722.659,315.766,-11090.974,-2811.633,,,,,2018-06-16 11:45:01.280
10.017548,-495,2084,-224,307,132,265,11767.224,322.052,-11056.686,-2759.321,,,,,2018-06-16 11:45:01.300
10.037537,-472,2120,-211,337,231,224,11812.773,328.519,-11023.83,-2694.639,,,,,2018-06-16 11:45:01.320
10.057526,-428,2112,-169,315,232,329,11863.243,314.938,-10987.973,-2619.951,371,297,275,35115,2018-06-16 11:45:01.340
10.077515,-421,2147,-241,350,174,422,11915.926,301.025,-10947.417,-2551.388,391,302,256,,2018-06-16 11:45:01.360
10.097504,-386,2134,-269,392,157,329,11969.414,303.822,-10900.693,-2500.23,,,,,2018-06-16 11:45:01.380
10.117493,-366,2073,-277,394,159,198,12018.545,316.344,-10854.295,-2464.594,,,,,2018-06-16 11:45:01.399
10.137482,-367,2000,-316,399,135,99,12064.14,334.055,-10808.317,-2441.443,,,,,2018-06-16 11:45:01.419
10.157471,-358,1960,-335,370,102,39,12104.978,346.894,-10766.053,-2424.193,,,,,2018-06-16 11:45:01.439
10.177491,-366,1950,-385,344,67,64,12151.84,357.888,-10717.867,-2401.551,395,297,235,,2018-06-16 11:45:01.459
10.197449,-392,1909,-403,419,106,88,12207.551,380.557,-10659.589,-2374.756,,,,,2018-06-16 11:45:01.479
10.217438,-431,1904,-417,503,165,51,12268.514,414.091,-10594.656,-2345.376,,,,,2018-06-16 11:45:01.499
10.237427,-424,1933,-475,543,213,37,12328.655,459.985,-10530.344,-2310.837,,,,,2018-06-16 11:45:01.519
10.257416,-464,1912,-496,528,299,0,12381.967,523.988,-10472.619,-2274.206,,,,,2018-06-16 11:45:01.539
10.277405,-460,1878,-518,469,394,-84,12424.024,612.695,-10425.289,-2239.868,423,303,229,,2018-06-16 11:45:01.559
10.297394,-465,1870,-547,410,512,-197,12455.214,728.481,-10388.178,-2204.123,,,,,2018-06-16 11:45:01.579
10.317383,-439,1812,-553,341,647,-273,12475.55,859.901,-10363.645,-2156.738,,,,,2018-06-16 11:45:01.599
10.337372,-444,1807,-444,251,767,-244,12488.158,998.4,-10350.837,-2084.394,,,,,2018-06-16 11:45:01.619
10.357361,-399,1789,-523,203,907,-142,12485.092,1142.254,-10358.762,-1987.259,,,,,2018-06-16 11:45:01.639
10.37735,-384,1816,-459,39,1053,-73,12472.373,1297.002,-10378.691,-1864.374,414,306,206,,2018-06-16 11:45:01.659
10.3974,-387,1848,-429,-5,1184,-10,12453.461,1454.587,-10404.284,-1726.791,,,,,2018-06-16 11:45:01.679
10.417328,-402,1844,-422,-18,1220,41,12435.866,1609.402,-10425.815,-1580.151,,,,,2018-06-16 11:45:01.699
10.437317,-459,1860,-434,25,1237,78,12424.458,1763.809,-10436.111,-1429.981,,,,,2018-06-16 11:45:01.719
10.457306,-531,1888,-449,112,1229,92,12421.356,1912.146,-10433.873,-1274.106,,,,,2018-06-16 11:45:01.739
10.477295,-576,1880,-424,196,1212,152,12427.049,2054.937,-10418.72,-1109.686,406,298,187,,2018-06-16 11:45:01.759
10.497284,-583,1897,-410,278,1208,201,12435.378,2193.307,-10397.278,-939.581,,,,,2018-06-16 11:45:01.779
10.517243,-587,1947,-390,304,1209,238,12441.532,2324.334,-10375.868,-763.245,,,,,2018-06-16 11:45:01.799
10.537262,-556,1954,-400,280,1190,302,12444.46,2445.987,-10355.844,-586.933,,,,,2018-06-16 11:45:01.819
10.557221,-562,1919,-388,264,1143,304,12445.697,2567.208,-10332.864,-425.944,406,298,187,35089,2018-06-16 11:45:01.839
10.57724,-553,1859,-414,268,1085,190,12448.716,2697.76,-10300.479,-295.178,397,301,183,,2018-06-16 11:45:01.859
10.597229,-581,1846,-391,301,999,-9,12458.225,2833.236,-10254.83,-198.277,,,,,2018-06-16 11:45:01.879
10.617218,-554,1864,-444,349,877,-151,12473.012,2962.876,-10201.256,-123.031,,,,,2018-06-16 11:45:01.899
10.637207,-538,1879,-441,373,792,-197,12487.981,3084.659,-10147.322,-49.974,,,,,2018-06-16 11:45:01.919
10.657166,-549,1858,-423,357,768,-162,12504.838,3200.457,-10090.627,27.899,,,,,2018-06-16 11:45:01.939
10.677155,-521,1977,-530,356,738,-121,12508.277,3305.356,-10051.972,104.575,374,295,182,,2018-06-16 11:45:01.959
10.697144,-419,2000,-499,247,719,-60,12507.246,3405.689,-10018.42,191.802,,,,,2018-06-16 11:45:01.979
10.717194,-346,2043,-424,207,782,2,12496.405,3511.41,-9993,291.97,,,,,2018-06-16 11:45:01.999
10.737183,-337,2014,-387,181,861,44,12480.591,3617.331,-9970.963,406.299,,,,,2018-06-16 11:45:02.019
10.757172,-386,1966,-345,156,888,117,12461.905,3718.72,-9951.639,521.89,,,,,2018-06-16 11:45:02.039
10.77713,-460,1901,-324,148,868,97,12443.346,3828.438,-9927.464,622.169,377,291,176,,2018-06-16 11:45:02.059
10.797119,-528,1883,-300,145,852,-44,12426.484,3954.315,-9893.803,702.836,,,,,2018-06-16 11:45:02.079
10.817139,-590,1820,-239,194,880,-181,12412.338,4102.934,-9844.866,783.482,,,,,2018-06-16 11:45:02.099
10.837097,-689,1757,-192,273,999,-255,12403.442,4261.683,-9781.301,868.474,,,,,2018-06-16 11:45:02.119
10.857086,-723,1783,-223,363,998,-262,12405.384,4404.997,-9706.829,956.746,,,,,2018-06-16 11:45:02.139
10.877106,-734,1830,-228,450,906,-183,12418.319,4527.651,-9623.784,1050.687,363,284,164,,2018-06-16 11:45:02.159
10.897065,-743,1860,-205,553,834,-120,12440.321,4641.09,-9529.521,1149.941,,,,,2018-06-16 11:45:02.179
10.917084,-762,1923,-267,618,821,-94,12461.486,4746.53,-9436.108,1255.831,,,,,2018-06-16 11:45:02.199
10.937043,-769,1974,-324,605,815,-19,12475.998,4845.881,-9349.409,1375.095,,,,,2018-06-16 11:45:02.219
10.957032,-760,2015,-382,574,862,67,12481.396,4954.212,-9264.641,1507.444,,,,,2018-06-16 11:45:02.239
10.977021,-700,2025,-383,548,986,80,12476.291,5071.153,-9183.418,1651.005,368,281,166,,2018-06-16 11:45:02.259
10.99701,-723,2002,-410,506,1041,137,12460.508,5178.727,-9115.41,1805.892,,,,,2018-06-16 11:45:02.279
11.016999,-691,1981,-427,428,1032,260,12433.908,5277.187,-9061.658,1967.488,,,,,2018-06-16 11:45:02.299
11.037018,-691,1918,-483,354,1024,320,12401.255,5375.794,-9013.761,2120.667,,,,,2018-06-16 11:45:02.319
11.056977,-742,1880,-489,301,994,256,12370.239,5472.124,-8965.623,2255.233,368,281,166,35111,2018-06-16 11:45:02.339
11.076966,-738,1863,-523,284,914,187,12344.75,5565.459,-8910.619,2380.993,347,285,149,,2018-06-16 11:45:02.359
11.096955,-790,1897,-540,352,877,159,12332.106,5651.268,-8839.382,2506.608,,,,,2018-06-16 11:45:02.379
11.116944,-889,1899,-528,495,833,150,12337.32,5726.453,-8744.692,2638.952,,,,,2018-06-16 11:45:02.399
11.136933,-891,1878,-575,683,797,136,12352.613,5804.395,-8628.954,2774.624,,,,,2018-06-16 11:45:02.419
11.156922,-753,1969,-537,757,871,104,12360.597,5891.344,-8505.109,2933.642,,,,,2018-06-16 11:45:02.439
11.176911,-605,2360,-553,828,1020,236,12345.978,5971.887,-8390.582,3153.877,326,274,141,,2018-06-16 11:45:02.459
11.1969,-385,2415,-513,806,1200,622,12330.168,6028.114,-8273.118,3408.773,,,,,2018-06-16 11:45:02.479
11.216889,-248,2392,-513,1015,1102,707,12323.809,6065.752,-8145.859,3662.074,,,,,2018-06-16 11:45:02.499
11.236878,-348,2047,-463,1000,1052,694,12312.724,6111.429,-8021.126,3891.56,,,,,2018-06-16 11:45:02.519
11.256867,-353,1899,-459,852,1025,464,12287.444,6197.56,-7909.203,4060.654,,,,,2018-06-16 11:45:02.539
11.276856,-361,1851,-366,555,1074,198,12233.6,6313.765,-7825.929,4203.055,325,271,132,,2018-06-16 11:45:02.559
11.296845,-373,1908,-295,234,1155,150,12157.092,6441.909,-7768.026,4335.912,,,,,2018-06-16 11:45:02.579
11.316834,-362,1946,-177,112,1190,236,12056.888,6570.258,-7733.918,4481.64,,,,,2018-06-16 11:45:02.599
11.336823,-364,1919,-193,-11,1205,364,11959.647,6687.246,-7698.571,4627.635,,,,,2018-06-16 11:45:02.619
11.356842,-399,1935,-259,77,1142,349,11869.526,6799.369,-7656.45,4764.151,,,,,2018-06-16 11:45:02.639
11.376801,-403,1948,-304,97,1090,265,11790.969,6908.026,-7603.446,4886.231,335,263,123,,2018-06-16 11:45:02.659
11.39679,-387,1982,-440,145,1036,174,11724.725,7015.895,-7530.687,5003.22,,,,,2018-06-16 11:45:02.679
11.416779,-374,1916,-488,276,1057,93,11661.361,7130.53,-7437.168,5127.589,,,,,2018-06-16 11:45:02.699
11.436768,-406,1788,-398,335,1157,79,11585.412,7254.742,-7343.183,5259.281,,,,,2018-06-16 11:45:02.719
11.456726,-501,1663,-323,245,1229,123,11488.787,7386.673,-7276.364,5379.107,,,,,2018-06-16 11:45:02.739
11.476746,-576,1569,-293,-30,1193,148,11372.315,7525.177,-7253.812,5464.411,326,257,122,,2018-06-16 11:45:02.759
11.496735,-690,1624,-327,-367,1063,139,11246.329,7665.504,-7266.453,5513.094,,,,,2018-06-16 11:45:02.779
11.516724,-777,1719,-425,-573,951,95,11122.301,7805.292,-7287.323,5540.954,,,,,2018-06-16 11:45:02.799
11.536682,-879,1864,-296,-608,867,25,11015.152,7938.569,-7292.08,5559.365,,,,,2018-06-16 11:45:02.819
11.556702,-922,1916,-329,-367,845,-88,10946.86,8046.523,-7253.857,5588.982,326,257,122,35111,2018-06-16 11:45:02.839
11.57666,-998,2007,-357,-48,696,-174,10920.771,8130.29,-7177.196,5617.688,316,251,125,,2018-06-16 11:45:02.859
11.59668,-1048,2049,-311,240,575,-299,10926.521,8198.361,-7072.058,5640.872,,,,,2018-06-16 11:45:02.879
11.61673,-1063,2026,-322,391,471,-434,10947.723,8260.046,-6957.386,5652.363,,,,,2018-06-16 11:45:02.899
11.636658,-1096,2028,-336,386,410,-483,10968.819,8319.949,-6853.412,5650.631,,,,,2018-06-16 11:45:02.919
11.656647,-1129,2025,-388,285,342,-488,10984.505,8379.629,-6767.978,5634.923,,,,,2018-06-16 11:45:02.939
11.676606,-1131,1972,-399,139,302,-457,10987.153,8441.911,-6705.165,5611.844,311,258,158,,2018-06-16 11:45:02.959
11.696625,-1136,2100,-348,9,297,-380,10971.062,8502.197,-6672.428,5591.294,,,,,2018-06-16 11:45:02.979
11.716614,-1106,1977,-221,-158,279,-239,10961.545,8551.34,-6652.423,5558.759,,,,,2018-06-16 11:45:02.999
11.736573,-1013,2100,-274,-116,116,-297,10962.438,8589.504,-6635.699,5517.996,,,,,2018-06-16 11:45:03.019
11.756562,-939,2195,-192,-117,69,-265,10961.908,8604.596,-6625.43,5507.866,,,,,2018-06-16 11:45:03.039
11.776581,-831,2229,-174,29,33,-26,10963.848,8591.115,-6618.162,5533.727,295,269,155,,2018-06-16 11:45:03.059
11.79654,-747,2205,-151,273,17,168,10984.324,8547.986,-6592.892,5589.79,,,,,2018-06-16 11:45:03.079
11.816559,-719,2047,-135,420,-89,187,11014.983,8496.713,-6567.991,5636.75,,,,,2018-06-16 11:45:03.099
11.836518,-701,1855,-57,395,-200,97,11054.766,8451.729,-6552.406,5644.629,,,,,2018-06-16 11:45:03.119
11.856507,-675,1801,-9,186,-272,-50,11086.968,8423.072,-6557.386,5618.462,,,,,2018-06-16 11:45:03.139
11.876496,-709,1832,0,-37,-274,-94,11103.803,8399.276,-6583.189,5590.596,283,267,169,,2018-06-16 11:45:03.158
11.896485,-631,1859,-80,-99,-242,50,11108.685,8363.32,-6622.784,5588.036,,,,,2018-06-16 11:45:03.178
11.916474,-601,1871,-66,-40,-246,223,11120.276,8309.095,-6651.333,5611.915,,,,,2018-06-16 11:45:03.198
11.936463,-580,1794,-64,169,-265,280,11147.099,8244.568,-6665.2,5637.36,,,,,2018-06-16 11:45:03.218
11.956452,-555,1737,-111,246,-318,181,11193.092,8178.726,-6663.028,5644.7,,,,,2018-06-16 11:45:03.238
11.976441,-551,1638,-99,276,-398,15,11247.027,8118.776,-6658.658,5629.17,291,261,163,,2018-06-16 11:45:03.258
11.99643,-603,1565,-153,191,-425,-75,11294.519,8065.615,-6665.426,5602.43,,,,,2018-06-16 11:45:03.278
12.016419,-624,1528,-156,70,-413,-32,11322.994,8015.618,-6696.175,5579.995,,,,,2018-06-16 11:45:03.298
12.036408,-656,1519,-164,-71,-379,112,11328.992,7968.299,-6751.615,5568.777,,,,,2018-06-16 11:45:03.318
12.056397,-647,1580,-202,-177,-319,267,11318.654,7922.752,-6819.764,5571.743,291,261,163,35105,2018-06-16 11:45:03.338
12.076386,-622,1659,-251,-187,-262,354,11304.124,7875.823,-6884.603,5588.009,305,272,164,,2018-06-16 11:45:03.358
12.096405,-571,1745,-341,-124,-220,395,11291.076,7827.517,-6936.277,5618.279,,,,,2018-06-16 11:45:03.378
12.116364,-564,1826,-345,-19,-156,405,11275.68,7784.641,-6970.951,5665.655,,,,,2018-06-16 11:45:03.398
12.136353,-527,1884,-358,68,-29,409,11253.04,7753.748,-6992.156,5726.576,,,,,2018-06-16 11:45:03.418
12.156342,-539,1868,-400,88,86,415,11220.722,7735.771,-7010.529,5791.472,,,,,2018-06-16 11:45:03.438
12.176331,-584,1833,-398,36,168,399,11179.007,7734.26,-7030.255,5849.954,312,281,169,,2018-06-16 11:45:03.458
12.19632,-602,1830,-434,-57,243,334,11129.365,7754.757,-7045.762,5898.614,,,,,2018-06-16 11:45:03.478
12.216309,-661,1883,-502,-115,344,251,11069.502,7795.479,-7052.328,5949.513,,,,,2018-06-16 11:45:03.498
12.236298,-638,1978,-472,-116,492,246,10994.22,7848.708,-7047.801,6024.022,,,,,2018-06-16 11:45:03.518
12.256287,-623,2021,-477,-59,677,338,10899.953,7911.14,-7031.502,6131.745,,,,,2018-06-16 11:45:03.538
12.276276,-669,2076,-446,14,873,449,10786.615,7989.426,-7000.591,6264.595,337,278,179,,2018-06-16 11:45:03.558
12.296265,-519,2256,-465,29,1087,473,10650.516,8091.207,-6955.42,6415.328,,,,,2018-06-16 11:45:03.578
12.316284,-508,2425,-462,49,1317,498,10494.602,8208.418,-6893.923,6587.447,,,,,2018-06-16 11:45:03.598
12.336243,-440,2383,-346,67,1511,542,10312.479,8340.978,-6828.133,6774.43,,,,,2018-06-16 11:45:03.618
12.356232,-306,2425,-305,-7,1674,622,10098.618,8481.033,-6773.823,6974.291,,,,,2018-06-16 11:45:03.638
12.376221,-220,2535,-399,-106,1741,782,9854.444,8608.196,-6752.219,7185.532,347,275,191,,2018-06-16 11:45:03.658
12.39621,-165,2490,-355,-230,1700,1065,9591.379,8712.158,-6767.382,7398.765,,,,,2018-06-16 11:45:03.678
12.416199,-129,2366,-275,-333,1580,1226,9336.837,8804.628,-6792.09,7589.792,,,,,2018-06-16 11:45:03.698
12.436188,-147,2216,-247,-367,1409,1048,9125.285,8899.093,-6807.765,7721.727,,,,,2018-06-16 11:45:03.718
12.456177,-143,2170,-353,-412,1121,608,8960.726,8986.354,-6819.046,7803.003,,,,,2018-06-16 11:45:03.738
12.476166,-197,2069,-327,-414,854,504,8829.905,9045.645,-6845.994,7859.826,357,280,210,,2018-06-16 11:45:03.758
12.496155,-248,1953,-448,-348,559,419,8753.728,9076.903,-6856.153,7900.042,,,,,2018-06-16 11:45:03.778
12.516144,-282,1901,-485,-80,335,167,8741.025,9088.536,-6816.966,7934.57,,,,,2018-06-16 11:45:03.798
12.536194,-322,1889,-506,282,255,-106,8761.11,9082.606,-6735.952,7988.215,,,,,2018-06-16 11:45:03.818
12.556122,-308,1816,-506,566,285,-136,8786.234,9059.864,-6634.724,8070.739,,,,,2018-06-16 11:45:03.838
12.576081,-330,1775,-488,697,379,-37,8798.289,9046.427,-6517.362,8167.722,381,273,231,35122,2018-06-16 11:45:03.858
12.5961,-272,1791,-459,751,534,-126,8801.336,9053.851,-6378.214,8265.475,,,,,2018-06-16 11:45:03.878
12.616089,-296,1792,-408,640,708,-172,8772.679,9087.631,-6244.964,8360.08,,,,,2018-06-16 11:45:03.898
12.636048,-315,1807,-380,457,831,-84,8708.978,9141.499,-6133.95,8449.662,,,,,2018-06-16 11:45:03.918
12.656037,-309,1832,-361,251,921,22,8622.383,9212.915,-6037.502,8529.988,,,,,2018-06-16 11:45:03.938
12.676056,-338,1844,-360,92,968,27,8534.339,9292.975,-5940.604,8599.437,410,273,240,,2018-06-16 11:45:03.958
12.696045,-388,1800,-327,89,950,-43,8460.899,9369.615,-5833.931,8661.649,,,,,2018-06-16 11:45:03.978
12.716004,-405,1741,-323,161,896,-138,8412.345,9434.464,-5715.083,8717.603,,,,,2018-06-16 11:45:03.998
12.736023,-459,1731,-383,276,775,-255,8389.904,9483.956,-5590.994,8765.86,,,,,2018-06-16 11:45:04.018
12.756012,-472,1718,-309,334,656,-310,8377.262,9524.969,-5475.872,8806.061,,,,,2018-06-16 11:45:04.038
12.776001,-529,1799,-322,295,548,-294,8359.004,9560.985,-5386.826,8839.239,398,273,231,,2018-06-16 11:45:04.058
12.79596,-566,1935,-379,172,467,-154,8328.086,9590.924,-5334.905,8867.433,,,,,2018-06-16 11:45:04.078
12.815949,-538,2094,-434,30,374,15,8285.832,9618.304,-5314.948,8889.318,,,,,2018-06-16 11:45:04.098
12.836029,-563,2160,-428,-72,292,99,8253.091,9642.549,-5308.16,8897.562,,,,,2018-06-16 11:45:04.118
12.855957,-531,2166,-409,-121,169,14,8239.613,9668.206,-5302.013,8885.868,,,,,2018-06-16 11:45:04.138
12.875916,-403,2300,-512,-122,102,-91,8238.416,9682.627,-5289.186,8878.917,388,268,231,,2018-06-16 11:45:04.158
12.895905,-348,2485,-497,18,37,-59,8228.147,9662.842,-5284.908,8912.478,,,,,2018-06-16 11:45:04.178
12.915894,-278,2613,-405,231,86,267,8199.675,9617.509,-5278.606,8991.14,,,,,2018-06-16 11:45:04.198
12.935883,-297,2341,-273,451,141,379,8177.99,9564.533,-5243.114,9087.65,,,,,2018-06-16 11:45:04.218
12.955872,-243,2059,-218,572,247,192,8190.054,9555.32,-5187.277,9118.468,,,,,2018-06-16 11:45:04.238
12.975861,-217,1998,-254,167,114,-354,8222.887,9596.063,-5136.822,9074.59,391,266,235,,2018-06-16 11:45:04.258
12.99585,-167,1977,-327,-206,76,-467,8228.443,9664.231,-5126.881,9002.549,,,,,2018-06-16 11:45:04.278
13.015839,-122,2084,-412,-502,98,-339,8200.685,9737.327,-5126.897,8948.942,,,,,2018-06-16 11:45:04.298
13.035828,-150,2044,-385,-434,290,-156,8149.822,9806.538,-5091.018,8940.312,,,,,2018-06-16 11:45:04.318
13.055817,-104,1971,-357,-79,565,-126,8095.549,9854.571,-4997.897,8989.214,,,,,2018-06-16 11:45:04.338
13.075806,-66,1852,-256,280,784,-82,8018.959,9886.523,-4888.296,9082.563,406,272,243,35075,2018-06-16 11:45:04.358
13.095795,-94,1732,-185,434,895,145,7917.602,9914.038,-4793.883,9191.166,,,,,2018-06-16 11:45:04.378
13.115784,-126,1657,-100,344,914,266,7805.089,9950.562,-4715.046,9288.2,,,,,2018-06-16 11:45:04.398
13.135773,-150,1648,-155,170,913,282,7680.285,10003.715,-4653.789,9365.714,,,,,2018-06-16 11:45:04.418
13.155762,-130,1598,-140,12,896,324,7546.68,10059.694,-4614.31,9433.649,,,,,2018-06-16 11:45:04.438
13.175751,-152,1579,-149,-98,845,402,7410.707,10116.824,-4588.613,9492.7,394,279,250,,2018-06-16 11:45:04.458
13.19574,-176,1579,-90,-135,798,421,7278.788,10169.391,-4559.935,9552.232,,,,,2018-06-16 11:45:04.478
13.215729,-181,1578,-137,-69,775,377,7154.659,10216.293,-4515.976,9616.631,,,,,2018-06-16 11:45:04.498
13.235718,-208,1566,-87,15,819,315,7038.106,10257.987,-4458.929,9684.635,,,,,2018-06-16 11:45:04.518
13.255707,-191,1688,-42,82,831,287,6918.636,10291.895,-4397.796,9762.386,,,,,2018-06-16 11:45:04.538
13.275696,-227,1802,-56,159,851,331,6797.804,10320.647,-4325.44,9848.863,409,269,260,,2018-06-16 11:45:04.558
13.295685,-209,1820,2,229,908,287,6681.445,10354.055,-4234.223,9932.705,,,,,2018-06-16 11:45:04.578
13.315674,-181,1831,20,223,957,163,6571.743,10399.819,-4133.092,10000.447,,,,,2018-06-16 11:45:04.598
13.335663,-111,1844,-17,119,945,64,6464.894,10460.032,-4035.527,10047.031,,,,,2018-06-16 11:45:04.618
13.355652,-38,1851,20,-21,932,17,6348.479,10535.975,-3940.827,10079.452,,,,,2018-06-16 11:45:04.638
13.375641,-32,1918,78,-130,1009,29,6207.457,10621.512,-3847.028,10113.691,428,274,253,,2018-06-16 11:45:04.658
13.39563,-20,2088,61,-157,1138,146,6037.84,10698.203,-3760.111,10168.084,,,,,2018-06-16 11:45:04.678
13.415619,15,2276,14,-56,1184,346,5856.79,10746.715,-3685.39,10249.851,,,,,2018-06-16 11:45:04.698
13.435608,25,2367,12,130,1128,524,5673.001,10769.872,-3620.82,10351.426,,,,,2018-06-16 11:45:04.718
13.455597,99,2416,44,225,1093,593,5486.552,10787.126,-3564.195,10453.114,,,,,2018-06-16 11:45:04.738
13.475586,66,2323,78,159,1048,631,5300.619,10821.153,-3525.958,10526.591,422,271,252,,2018-06-16 11:45:04.758
13.495575,22,2329,99,-108,953,603,5109.769,10890.672,-3523.915,10549.928,,,,,2018-06-16 11:45:04.778
13.515564,71,2290,96,-582,833,695,4906.507,10994.607,-3588.114,10516.923,,,,,2018-06-16 11:45:04.798
13.535553,4,2325,-82,-997,568,829,4734.987,11104.549,-3694.457,10442.955,,,,,2018-06-16 11:45:04.818
13.555573,-18,2283,-223,-1106,261,714,4605.684,11195.918,-3807.634,10362.26,,,,,2018-06-16 11:45:04.838
13.575531,-21,2236,-298,-939,74,626,4505.587,11249.723,-3916.669,10307.209,422,271,252,35101,2018-06-16 11:45:04.858
13.59552,47,2173,-225,-600,-21,619,4432.221,11261.782,-4010.529,10289.74,427,290,259,,2018-06-16 11:45:04.878
13.615479,89,2024,-182,-262,-74,549,4381.379,11248.387,-4090.475,10294.695,,,,,2018-06-16 11:45:04.897
13.635498,137,1912,-144,-101,-121,517,4330.721,11226.964,-4184.139,10301.871,,,,,2018-06-16 11:45:04.917
13.655487,114,1917,-191,-160,-193,629,4278.926,11208.543,-4304.315,10294.059,,,,,2018-06-16 11:45:04.937
13.675446,153,1945,-169,-277,-313,663,4237.391,11197.152,-4430.798,10269.944,,,,,2018-06-16 11:45:04.957
13.695465,166,1961,-106,-342,-360,588,4206.313,11188.549,-4548.572,10240.568,457,291,281,,2018-06-16 11:45:04.977
13.715424,205,2017,-81,-306,-360,520,4180.582,11176.274,-4666.371,10211.466,,,,,2018-06-16 11:45:04.997
13.735413,255,2023,-105,-292,-402,523,4161.492,11156.819,-4787.914,10184.237,,,,,2018-06-16 11:45:05.017
13.755463,292,2069,-131,-248,-449,519,4152.633,11132.075,-4908.061,10157.702,,,,,2018-06-16 11:45:05.037
13.775421,291,2104,-123,-192,-500,481,4158.208,11094.448,-5024.862,10139.463,,,,,2018-06-16 11:45:05.057
13.79538,328,2114,-173,-54,-536,454,4171.807,11038.987,-5130.182,10141.67,498,294,314,,2018-06-16 11:45:05.077
13.815369,376,2129,-86,125,-469,446,4178.559,10972.491,-5214.86,10167.829,,,,,2018-06-16 11:45:05.097
13.835358,407,2158,-36,246,-315,450,4161.375,10908.859,-5283.539,10207.81,,,,,2018-06-16 11:45:05.117
13.855347,393,2177,24,208,-138,520,4109.72,10860.534,-5350.262,10245.444,,,,,2018-06-16 11:45:05.137
13.875367,413,2210,101,44,6,605,4025.066,10834.69,-5420.416,10269.511,,,,,2018-06-16 11:45:05.157
13.895325,412,2247,118,-154,113,660,3919.426,10826.834,-5494.246,10279.418,515,306,337,,2018-06-16 11:45:05.177
13.915314,427,2255,163,-288,153,689,3807.22,10824.562,-5573.681,10281.218,,,,,2018-06-16 11:45:05.197
13.935303,426,2216,194,-313,120,705,3707.229,10817.562,-5655.669,10280.352,,,,,2018-06-16 11:45:05.217
13.955323,435,2176,152,-260,35,646,3632.818,10803.82,-5733.505,10278.251,,,,,2018-06-16 11:45:05.237
13.975281,461,2145,178,-174,-64,536,3598.437,10782.026,-5805.486,10272.824,,,,,2018-06-16 11:45:05.257
13.99527,464,2135,191,-84,-210,368,3576.207,10751.307,-5886.423,10266.723,563,295,359,,2018-06-16 11:45:05.277
14.015259,469,2100,161,-81,-278,472,3554.698,10715.597,-5978.103,10258.548,,,,,2018-06-16 11:45:05.297
14.035279,461,2141,134,-60,-331,474,3536.694,10681.067,-6068.336,10247.796,,,,,2018-06-16 11:45:05.317
14.055329,476,2169,107,-86,-314,477,3502.855,10649.454,-6158.34,10238.624,,,,,2018-06-16 11:45:05.337
14.075257,507,2203,160,-126,-209,525,3448.904,10620.433,-6237.745,10239.015,563,295,359,35085,2018-06-16 11:45:05.357
14.095246,489,2229,171,-109,-71,557,3375.914,10596.547,-6305.917,10246.328,600,281,381,,2018-06-16 11:45:05.377
14.115204,559,2273,209,-162,58,590,3282.962,10581.94,-6365.951,10254.501,,,,,2018-06-16 11:45:05.397
14.135193,605,2318,246,-219,162,598,3181.593,10572.454,-6422.723,10260.835,,,,,2018-06-16 11:45:05.417
14.155182,604,2428,259,-243,162,606,3088.952,10561.617,-6484.459,10261.474,,,,,2018-06-16 11:45:05.437
14.175171,638,2243,219,-236,71,558,3029.52,10554.09,-6536.321,10254.03,,,,,2018-06-16 11:45:05.457
14.19516,619,2263,269,-185,7,341,2968.36,10551.979,-6583.592,10243.843,633,266,401,,2018-06-16 11:45:05.477
14.215149,323,2402,391,-262,23,420,2922.521,10548.655,-6646.734,10219.643,,,,,2018-06-16 11:45:05.497
14.235138,-348,2965,465,-219,-253,353,2972.111,10511.96,-6750.115,10175.295,,,,,2018-06-16 11:45:05.517
14.255127,-432,3387,8,155,-1012,201,3181.732,10412.487,-6879.492,10127.424,,,,,2018-06-16 11:45:05.537
14.275116,13,2741,-159,703,-1569,-223,3453.23,10341.922,-6900.717,10096.305,,,,,2018-06-16 11:45:05.557
14.295105,610,1753,-83,700,-875,-900,3601.6,10352.046,-6804.621,10099.316,664,256,424,,2018-06-16 11:45:05.577
14.315094,1051,1101,373,277,229,-823,3646.278,10426.505,-6707.775,10071.436,,,,,2018-06-16 11:45:05.597
14.335083,983,1279,329,-604,361,-840,3603.934,10591.673,-6631.352,9964.373,,,,,2018-06-16 11:45:05.617
14.355072,986,1714,286,-1037,303,-515,3514.541,10740.25,-6643.689,9828.116,,,,,2018-06-16 11:45:05.637
14.375061,583,2174,347,-1436,21,-51,3421.605,10851.389,-6681.164,9712.747,,,,,2018-06-16 11:45:05.657
14.39505,498,2306,493,-630,149,108,3382.42,10869.892,-6690.062,9699.648,689,222,438,,2018-06-16 11:45:05.677
14.415039,510,2194,567,-76,87,79,3401.183,10839.83,-6682.993,9731.551,,,,,2018-06-16 11:45:05.697
14.435028,599,1974,625,460,-66,-7,3460.937,10785.423,-6674.217,9776.852,,,,,2018-06-16 11:45:05.717
14.455017,652,1841,672,511,-209,-91,3534.379,10741.005,-6675.782,9798.384,,,,,2018-06-16 11:45:05.737
14.475006,633,1972,588,323,-326,-136,3588.053,10725.092,-6698.953,9780.477,,,,,2018-06-16 11:45:05.757
14.494995,570,1986,484,-74,-347,-15,3611.456,10725.508,-6757.075,9731.301,684,244,462,,2018-06-16 11:45:05.777
14.514984,483,2022,355,-183,-432,84,3642.095,10720.748,-6821.078,9680.342,,,,,2018-06-16 11:45:05.797
14.534973,439,1985,353,-178,-472,68,3681.353,10706.84,-6882.82,9637.086,,,,,2018-06-16 11:45:05.817
14.554962,427,1989,347,-80,-480,84,3727.851,10686.524,-6938.333,9601.89,,,,,2018-06-16 11:45:05.837
14.574951,437,1965,340,1,-464,34,3775.758,10667.979,-6981.564,9572.412,684,244,462,35068,2018-06-16 11:45:05.857
14.59494,405,1980,372,1,-382,-12,3809.276,10659.723,-7012.183,9545.911,685,252,477,,2018-06-16 11:45:05.877
14.614899,474,1958,394,-68,-268,-12,3829.923,10661.195,-7038.372,9516.689,,,,,2018-06-16 11:45:05.897
14.634919,503,2015,422,-113,-225,-17,3845.952,10664.002,-7066.856,9485.92,,,,,2018-06-16 11:45:05.917
14.654908,489,2039,440,-123,-234,13,3862.117,10662.716,-7098.879,9456.843,,,,,2018-06-16 11:45:05.937
14.674866,493,2008,407,-110,-247,24,3882.891,10658.946,-7129.656,9429.393,,,,,2018-06-16 11:45:05.957
14.694886,464,2007,398,-68,-254,9,3905.752,10654.033,-7160.344,9402.211,667,251,483,,2018-06-16 11:45:05.977
14.714875,456,2030,379,-75,-273,11,3933.38,10646.634,-7192.418,9374.553,,,,,2018-06-16 11:45:05.997
14.734833,425,2030,343,-49,-296,0,3965.081,10637.692,-7221.982,9348.586,,,,,2018-06-16 11:45:06.017
14.754822,396,1974,353,-30,-290,-18,3998.301,10630.604,-7245.287,9324.435,,,,,2018-06-16 11:45:06.037
14.774811,409,1944,360,-17,-256,-52,4027.551,10628.96,-7259.072,9302.975,,,,,2018-06-16 11:45:06.057
14.7948,428,1935,355,-40,-185,-78,4047.065,10630.736,-7270.265,9283.717,668,245,493,,2018-06-16 11:45:06.077
14.81482,433,1973,310,-50,-152,-43,4064.097,10629.62,-7282.784,9267.728,,,,,2018-06-16 11:45:06.097
14.834809,417,2043,319,-28,-141,-31,4081.641,10625.527,-7289.198,9259.665,,,,,2018-06-16 11:45:06.117
14.854767,402,2061,305,32,-105,-48,4103.772,10619.958,-7287.609,9257.523,,,,,2018-06-16 11:45:06.137
14.874756,413,2034,338,74,-78,-81,4124.873,10618.918,-7275.142,9259.143,,,,,2018-06-16 11:45:06.157
14.894745,427,2025,384,74,-9,-131,4143.26,10623.704,-7251.676,9263.851,666,255,507,,2018-06-16 11:45:06.177
14.914765,439,2017,446,70,46,-168,4157.863,10633.332,-7222.159,9269.318,,,,,2018-06-16 11:45:06.197
14.934723,434,1993,459,61,75,-185,4172.409,10645.681,-7190.367,9273.324,,,,,2018-06-16 11:45:06.217
14.954712,450,1953,477,53,77,-201,4184.829,10660.329,-7157.13,9276.611,,,,,2018-06-16 11:45:06.237
14.974732,448,1954,472,39,97,-200,4195.805,10675.262,-7123.873,9280.079,,,,,2018-06-16 11:45:06.257
14.99469,428,1911,458,40,95,-201,4203.982,10691.16,-7091.026,9283.232,659,249,513,,2018-06-16 11:45:06.277
15.014679,407,1916,486,13,114,-179,4203.65,10709.845,-7061.43,9284.405,,,,,2018-06-16 11:45:06.297
15.034699,415,2002,458,-26,127,-149,4200.425,10728.435,-7035.45,9284.125,,,,,2018-06-16 11:45:06.317
15.054657,412,2009,491,-32,118,-129,4196.085,10744.531,-7012.965,9284.485,,,,,2018-06-16 11:45:06.337
15.074677,405,2024,474,-22,105,-111,4193.213,10760.377,-6991.713,9283.46,659,249,513,35095,2018-06-16 11:45:06.357
15.094666,404,2009,458,-46,99,-120,4192.142,10777.451,-6970.906,9279.784,655,261,509,,2018-06-16 11:45:06.377
15.114655,403,1985,435,-43,76,-131,4194.473,10794.488,-6951.99,9273.116,,,,,2018-06-16 11:45:06.397
15.134613,398,1971,453,-49,46,-134,4200.39,10809.181,-6938.261,9263.6,,,,,2018-06-16 11:45:06.417
15.154602,375,1936,447,-45,-1,-126,4211.437,10820.747,-6929.483,9251.645,,,,,2018-06-16 11:45:06.437
15.174591,357,1962,408,-49,-40,-112,4223.736,10828.13,-6926.391,9239.707,,,,,2018-06-16 11:45:06.457
15.19458,358,1986,353,-26,-63,-82,4237.422,10829.459,-6927.574,9230.992,649,267,512,,2018-06-16 11:45:06.477
15.214569,326,2025,376,-6,-83,-45,4250.137,10826.775,-6932.108,9224.889,,,,,2018-06-16 11:45:06.497
15.234558,286,2037,358,-1,-80,-24,4260.916,10825.879,-6933.867,9219.645,,,,,2018-06-16 11:45:06.517
15.254547,300,2023,351,0,-47,-43,4268.734,10828.943,-6929.928,9215.391,,,,,2018-06-16 11:45:06.537
15.274597,329,1981,384,-13,-13,-62,4276.044,10833.564,-6923.714,9211.24,,,,,2018-06-16 11:45:06.557
15.294525,309,2004,413,-8,-13,-72,4285.85,10837.961,-6916.208,9207.149,647,266,520,,2018-06-16 11:45:06.577
15.314514,312,2029,455,3,-21,-78,4298.016,10841.553,-6908.222,9203.243,,,,,2018-06-16 11:45:06.597
15.334503,328,2021,453,14,-32,-94,4313.482,10845.544,-6897.95,9199.008,,,,,2018-06-16 11:45:06.617
15.354492,338,1945,469,19,-24,-118,4325.661,10851.978,-6885.583,9194.966,,,,,2018-06-16 11:45:06.636
15.374482,359,1929,459,5,2,-103,4332.701,10857.89,-6874.768,9192.764,,,,,2018-06-16 11:45:06.656
15.394471,395,1961,438,4,12,-74,4339.932,10859.476,-6869.744,9191.236,638,280,513,,2018-06-16 11:45:06.676
15.41446,381,1971,414,14,-33,-49,4349.891,10858.176,-6868.979,9188.634,,,,,2018-06-16 11:45:06.696
15.434449,337,1993,367,17,-46,-38,4357.232,10856.551,-6866.877,9188.648,,,,,2018-06-16 11:45:06.716
15.454438,361,2007,376,22,-8,-26,4357.881,10854.544,-6861.254,9194.909,,,,,2018-06-16 11:45:06.736
15.474427,356,1980,379,39,46,-5,4352.683,10851.228,-6853.24,9207.254,,,,,2018-06-16 11:45:06.756
15.494416,375,1957,435,70,73,18,4348.865,10841.638,-6846.642,9225.247,647,275,511,,2018-06-16 11:45:06.776
15.514405,331,2028,385,121,49,41,4351.241,10824.694,-6845.311,9244.99,,,,,2018-06-16 11:45:06.796
15.534394,305,2060,410,136,-1,56,4355.271,10807.791,-6846.32,9262.106,,,,,2018-06-16 11:45:06.816
15.554383,296,2087,395,105,-6,46,4358.398,10800.829,-6846.065,9268.941,,,,,2018-06-16 11:45:06.836
15.574372,310,2008,381,11,0,-6,4358.94,10803.965,-6841.136,9268.671,647,275,511,35075,2018-06-16 11:45:06.856
15.594361,308,1982,369,-18,25,-41,4357.574,10808.296,-6833.197,9270.12,632,279,517,,2018-06-16 11:45:06.876
15.61435,328,2001,368,9,45,-36,4356.933,10810.038,-6823.4,9275.605,,,,,2018-06-16 11:45:06.896
15.634339,323,1995,388,33,47,-35,4357.86,10810.456,-6812.408,9282.76,,,,,2018-06-16 11:45:06.916
15.654328,306,2036,435,37,55,-40,4359.631,10809.469,-6798.645,9293.161,,,,,2018-06-16 11:45:06.936
15.674317,319,2032,467,68,60,-47,4361.393,10810.999,-6782.293,9302.499,,,,,2018-06-16 11:45:06.956
15.694306,305,2016,492,53,71,-64,4363.216,10813.825,-6766.096,9310.151,645,280,511,,2018-06-16 11:45:06.976
15.714295,321,2010,509,50,61,-72,4363.932,10820.251,-6751.344,9313.059,,,,,2018-06-16 11:45:06.996
15.734284,336,1959,541,-23,58,-60,4362.777,10829.297,-6743.829,9308.528,,,,,2018-06-16 11:45:07.016
15.754242,314,2009,486,-55,8,-68,4367.549,10836.599,-6743.893,9297.74,,,,,2018-06-16 11:45:07.036
15.774262,300,2054,459,-43,-58,-47,4379.763,10839.436,-6748.188,9285.563,,,,,2018-06-16 11:45:07.056
15.79422,308,2050,420,-22,-102,-56,4398.409,10840.92,-6750.702,9273.181,640,285,509,,2018-06-16 11:45:07.076
15.814209,292,1992,372,-24,-104,-86,4412.888,10848.224,-6749.882,9258.346,,,,,2018-06-16 11:45:07.096
15.834198,283,1992,333,-56,-58,-104,4420.057,10861.365,-6744.154,9243.681,,,,,2018-06-16 11:45:07.116
15.854218,268,2017,277,-87,-10,-95,4422.851,10873.994,-6736.175,9233.31,,,,,2018-06-16 11:45:07.136
15.874207,273,2053,258,-36,16,-84,4428.804,10876.771,-6723.771,9236.227,,,,,2018-06-16 11:45:07.156
15.894165,343,2030,253,51,36,-64,4432.674,10873.733,-6705.067,9251.531,641,289,507,,2018-06-16 11:45:07.176
15.914154,415,1994,209,103,100,-56,4426.751,10874.371,-6679.959,9271.758,,,,,2018-06-16 11:45:07.196
15.934143,469,1950,228,80,187,-56,4407.271,10882.304,-6648.821,9294.086,,,,,2018-06-16 11:45:07.216
15.954132,531,1956,237,40,265,-33,4370.806,10892.244,-6614.645,9324,,,,,2018-06-16 11:45:07.236
15.974152,548,1990,298,42,376,20,4313.27,10901.042,-6575.964,9367.77,,,,,2018-06-16 11:45:07.256
15.994141,525,1980,390,57,499,115,4231.911,10909.605,-6536.606,9422.296,635,290,506,,2018-06-16 11:45:07.276
16.014099,569,1983,402,34,623,185,4130.435,10926.49,-6491.404,9478.841,,,,,2018-06-16 11:45:07.296
16.034119,629,1921,432,-31,717,183,4018.114,10958.877,-6436.048,9527.354,,,,,2018-06-16 11:45:07.316
16.054108,689,1897,442,-132,783,150,3893.898,10994.345,-6392.16,9567.531,,,,,2018-06-16 11:45:07.336
16.074097,739,1919,423,-204,727,247,3766.193,11015.067,-6373.478,9607.2,635,290,506,35080,2018-06-16 11:45:07.356
16.094086,752,1985,365,-138,623,404,3649.337,11004.45,-6379.389,9660.395,628,290,511,,2018-06-16 11:45:07.376
16.114044,730,2078,327,45,473,536,3545.367,10959.233,-6406.502,9732.304,,,,,2018-06-16 11:45:07.396
16.134034,684,2231,332,222,374,686,3448.803,10885.997,-6449.814,9820.192,,,,,2018-06-16 11:45:07.416
16.154023,592,2400,329,354,289,792,3361.019,10798.095,-6505.268,9910.682,,,,,2018-06-16 11:45:07.436
16.174012,450,2552,288,383,216,810,3283.264,10710.859,-6559.181,9995.512,,,,,2018-06-16 11:45:07.456
16.194001,347,2664,310,372,168,742,3226.955,10628.284,-6618.786,10062.477,647,287,488,,2018-06-16 11:45:07.476
16.21399,325,2775,271,306,-17,661,3203.733,10550.537,-6694.786,10101.362,,,,,2018-06-16 11:45:07.496
16.233979,283,2757,353,265,-273,554,3229.965,10477.442,-6777.957,10113.618,,,,,2018-06-16 11:45:07.516
16.253968,207,2710,387,248,-536,325,3302.042,10419.267,-6854.367,10098.935,,,,,2018-06-16 11:45:07.536
16.273957,177,2597,378,226,-675,72,3409.748,10378.964,-6912.697,10064.828,,,,,2018-06-16 11:45:07.556
16.293946,183,2414,396,191,-757,-163,3537.958,10348.948,-6967.564,10013.521,674,278,474,,2018-06-16 11:45:07.576
16.313935,246,2257,406,138,-843,-239,3666.652,10321.814,-7027.684,9953.035,,,,,2018-06-16 11:45:07.596
16.333924,236,2211,318,100,-852,-222,3792.597,10300.953,-7078.379,9891.337,,,,,2018-06-16 11:45:07.616
16.353913,256,2078,342,96,-763,-335,3927.659,10299.389,-7084.118,9835.994,,,,,2018-06-16 11:45:07.636
16.373902,316,1918,359,138,-585,-582,4061.937,10317.555,-7049.368,9787.265,,,,,2018-06-16 11:45:07.656
16.393891,333,1859,381,147,-425,-743,4193.047,10338.394,-7005.388,9741.454,702,238,449,,2018-06-16 11:45:07.676
16.41388,331,1850,314,155,-397,-688,4308.705,10350.161,-6967.856,9705.342,,,,,2018-06-16 11:45:07.696
16.433869,360,1837,318,180,-335,-571,4411.743,10353.295,-6924.823,9686.488,,,,,2018-06-16 11:45:07.716
16.453858,386,1828,308,278,-230,-531,4513.679,10349.494,-6866.853,9684.855,,,,,2018-06-16 11:45:07.736
16.473847,380,1782,310,378,-154,-578,4614.535,10349.496,-6791.277,9690.614,,,,,2018-06-16 11:45:07.756
16.493897,441,1752,280,378,-56,-632,4708.323,10361.219,-6699.477,9696.869,667,244,462,,2018-06-16 11:45:07.776
16.513825,487,1683,253,334,37,-698,4787.655,10386.177,-6598.354,9700.661,,,,,2018-06-16 11:45:07.796
16.533814,499,1653,207,245,148,-692,4840.401,10423.98,-6497.122,9702.267,,,,,2018-06-16 11:45:07.816
16.553803,527,1638,182,123,255,-614,4863.24,10474.111,-6400.576,9701.028,,,,,2018-06-16 11:45:07.836
16.573792,538,1718,157,-4,366,-527,4856.786,10533.893,-6306.79,9700.957,667,244,462,35095,2018-06-16 11:45:07.856
16.593781,504,1809,141,-91,482,-442,4827.009,10598.358,-6214.198,9705.357,620,272,433,,2018-06-16 11:45:07.876
16.61377,494,1949,83,-123,575,-362,4777.488,10661.563,-6121.535,9719.512,,,,,2018-06-16 11:45:07.896
16.633759,509,2053,122,-106,663,-275,4715.004,10717.936,-6030.405,9744.959,,,,,2018-06-16 11:45:07.916
16.653748,474,2136,104,-78,697,-185,4643.268,10765.761,-5947.915,9777.33,,,,,2018-06-16 11:45:07.936
16.673737,445,2211,120,-57,682,-98,4572.516,10806.365,-5875.146,9809.825,,,,,2018-06-16 11:45:07.956
16.693726,415,2185,165,-61,625,-71,4508.315,10846.198,-5809.821,9834.455,572,295,422,,2018-06-16 11:45:07.976
16.713715,384,2118,208,-91,547,-97,4453.186,10889.344,-5752.415,9845.632,,,,,2018-06-16 11:45:07.996
16.733704,344,2090,236,-160,459,-116,4405.633,10935.094,-5707.115,9842.681,,,,,2018-06-16 11:45:08.016
16.753662,333,2109,219,-224,370,-110,4355.896,10981.9,-5676.395,9830.463,,,,,2018-06-16 11:45:08.036
16.773682,269,2093,233,-278,320,-29,4298.528,11020.571,-5664.755,9819.148,,,,,2018-06-16 11:45:08.056
16.79364,260,2095,236,-276,275,106,4235.359,11044.557,-5675.952,9813.18,558,304,389,,2018-06-16 11:45:08.076
16.81366,260,2122,225,-229,195,257,4171.167,11045.589,-5708.903,9820.396,,,,,2018-06-16 11:45:08.096
16.833649,257,2116,243,-112,118,410,4110.136,11019.611,-5760.598,9845.094,,,,,2018-06-16 11:45:08.116
16.853638,276,2126,222,45,44,541,4052.104,10965.882,-5824.926,9891.185,,,,,2018-06-16 11:45:08.136
16.873627,320,2219,236,209,1,669,3997.256,10888.196,-5896.234,9956.856,,,,,2018-06-16 11:45:08.156
16.893616,286,2321,156,344,-30,727,3949.779,10801.141,-5965.022,10029.384,552,301,386,,2018-06-16 11:45:08.176
16.913575,294,2401,148,405,-52,691,3918.177,10715.67,-6021.079,10099.72,,,,,2018-06-16 11:45:08.196
16.933594,266,2440,117,392,-21,520,3905.64,10654.291,-6042.9,10156.321,,,,,2018-06-16 11:45:08.216
16.953583,256,2408,147,347,19,229,3911.75,10621.337,-6032.294,10194.717,,,,,2018-06-16 11:45:08.236
16.973542,233,2355,118,240,64,-27,3929.603,10615.043,-6001.101,10212.8,,,,,2018-06-16 11:45:08.256
16.993531,208,2276,113,115,82,-198,3950.265,10631.431,-5954.389,10215.124,544,281,379,,2018-06-16 11:45:08.276
17.01352,196,2233,140,20,145,-314,3965.298,10663.936,-5892.28,10211.432,,,,,2018-06-16 11:45:08.296
17.033509,217,2195,148,-36,233,-367,3973.057,10705.183,-5823.9,10204.484,,,,,2018-06-16 11:45:08.316
17.053498,227,2118,231,-86,263,-378,3984.378,10749.168,-5755.477,10192.646,,,,,2018-06-16 11:45:08.335
17.073517,234,2002,161,-80,206,-426,4014.425,10789.562,-5695.384,10171.911,544,281,379,35085,2018-06-16 11:45:08.356
17.093476,237,1958,237,-80,87,-449,4068.165,10809.552,-5658.236,10150.044,564,274,370,,2018-06-16 11:45:08.375
17.113465,205,1987,143,72,-135,-362,4130.703,10801.304,-5630.063,10149.233,,,,,2018-06-16 11:45:08.395
17.133454,237,2010,101,270,-154,-290,4196.841,10761.763,-5603.313,10178.865,,,,,2018-06-16 11:45:08.415
17.153443,200,2009,277,494,-161,-179,4261.957,10705.528,-5581.184,10223.17,,,,,2018-06-16 11:45:08.435
17.173462,309,2076,163,511,-181,-112,4313.039,10655.486,-5580.352,10254.433,,,,,2018-06-16 11:45:08.455
17.193421,228,2124,126,334,-225,-6,4360.32,10614.602,-5607.052,10262.272,547,269,351,,2018-06-16 11:45:08.475
17.21341,224,2188,135,155,-321,24,4404.366,10593.071,-5631.977,10252.057,,,,,2018-06-16 11:45:08.495
17.233399,134,2094,0,65,-309,-93,4466.591,10581.588,-5641.399,10231.794,,,,,2018-06-16 11:45:08.515
17.253388,240,1996,165,66,-289,-260,4557.99,10573.384,-5644.062,10198.444,,,,,2018-06-16 11:45:08.535
17.273377,370,1851,192,138,-544,-377,4683.162,10554.155,-5658.639,10153.474,,,,,2018-06-16 11:45:08.555
17.293366,225,1952,180,107,-696,-479,4833.905,10523.367,-5682.041,10101.581,519,268,347,,2018-06-16 11:45:08.575
17.313355,204,1913,184,221,-829,-479,4993.142,10479.771,-5708.092,10054.653,,,,,2018-06-16 11:45:08.595
17.333344,237,1908,248,285,-857,-443,5155.384,10423.131,-5728.702,10019.867,,,,,2018-06-16 11:45:08.615
17.353333,155,1853,175,354,-755,-495,5356.378,10336.829,-5750.852,9991.112,,,,,2018-06-16 11:45:08.635
17.373322,111,1830,133,682,-1078,-502,5582.241,10232.932,-5769.684,9963.527,,,,,2018-06-16 11:45:08.655
17.393311,36,1804,92,733,-1181,-602,5830.794,10113.447,-5781.557,9936.249,527,264,318,,2018-06-16 11:45:08.675
17.4133,-1,1748,87,826,-1286,-652,6093.669,9971.051,-5800.391,9911.419,,,,,2018-06-16 11:45:08.695
17.433289,-62,1716,25,902,-1343,-591,6339.405,9827.303,-5828.794,9884.161,,,,,2018-06-16 11:45:08.715
17.453278,-70,1729,41,834,-1295,-480,6561.029,9688.427,-5863.453,9856.096,,,,,2018-06-16 11:45:08.735
17.473267,-86,1754,-13,703,-1215,-387,6750.403,9559.755,-5911.324,9825.213,,,,,2018-06-16 11:45:08.755
17.493256,-60,1805,-30,571,-1134,-240,6907.398,9441.393,-5969.937,9795.061,501,252,332,,2018-06-16 11:45:08.775
17.513245,9,1848,-104,451,-1027,-132,7034.153,9339.349,-6028.871,9766.545,,,,,2018-06-16 11:45:08.795
17.533234,18,1908,-101,364,-939,-92,7151.777,9226.922,-6094.764,9747.065,,,,,2018-06-16 11:45:08.815
17.553223,72,1958,-157,403,-917,23,7285.978,9127.015,-6143.774,9710.901,,,,,2018-06-16 11:45:08.835
17.573212,48,1906,-172,440,-954,-267,7436.997,9038.758,-6173.877,9659.741,501,252,332,35080,2018-06-16 11:45:08.855
17.593201,27,1865,-187,333,-894,-412,7575.425,8972.255,-6207.722,9592.247,466,225,347,,2018-06-16 11:45:08.875
17.61319,-54,1934,-272,144,-851,-386,7686.527,8926.017,-6256.691,9514.87,,,,,2018-06-16 11:45:08.895
17.633149,38,1877,-209,-39,-759,-279,7760.338,8890.334,-6321.481,9445.285,,,,,2018-06-16 11:45:08.915
17.653138,13,1938,-240,-148,-661,-171,7835.73,8848.058,-6377.308,9385.018,,,,,2018-06-16 11:45:08.935
17.673127,10,1940,-285,46,-668,-119,7915.992,8777.872,-6422.082,9352.985,,,,,2018-06-16 11:45:08.955
17.693146,17,1954,-320,270,-654,-28,8005.403,8683.453,-6452.939,9343.777,394,136,363,,2018-06-16 11:45:08.975
17.713196,21,1988,-328,464,-658,-19,8106.906,8570.806,-6468.41,9349.569,,,,,2018-06-16 11:45:08.995
17.733124,-9,2013,-355,617,-657,-30,8206.566,8450.958,-6475.868,9366.544,,,,,2018-06-16 11:45:09.015
17.753113,-35,2021,-396,637,-596,37,8276.153,8354.86,-6483.799,9386.02,,,,,2018-06-16 11:45:09.035
17.773102,-23,2023,-334,419,-475,64,8323.175,8274.221,-6505.276,9401.002,,,,,2018-06-16 11:45:09.055
17.793061,0,1993,-365,257,-389,168,8349.978,8223.822,-6538.734,9398.245,182,-61,415,,2018-06-16 11:45:09.075
17.81308,154,2021,42,94,-334,91,8378.949,8184.16,-6570.045,9385.237,,,,,2018-06-16 11:45:09.095
17.833191,-33,2019,-409,208,-416,0,8458.914,8096.519,-6573.917,9386.81,,,,,2018-06-16 11:45:09.115
17.853058,13,1753,-368,177,-450,-19,8481.506,8060.024,-6605.93,9375.35,,,,,2018-06-16 11:45:09.135
17.873017,60,1917,-405,76,-318,137,8492.281,8011.014,-6650.581,9376.034,,,,,2018-06-16 11:45:09.155
17.893006,368,2195,-218,39,-287,172,8506.031,7971.674,-6686.286,9371.705,-234,-364,291,,2018-06-16 11:45:09.175
17.912995,21,2016,-403,52,-276,132,8503.484,7943.88,-6714.89,9377.165,,,,,2018-06-16 11:45:09.195
17.933014,13,2049,-466,-19,-205,181,8505.227,7914.382,-6751.232,9374.431,,,,,2018-06-16 11:45:09.215
17.953003,0,2067,-460,17,-205,112,8514.825,7891.863,-6769.949,9371.204,,,,,2018-06-16 11:45:09.235
17.972992,30,2022,-389,47,-168,28,8533.995,7860.908,-6779.209,9373.089,,,,,2018-06-16 11:45:09.255
17.992951,-9,2076,-396,140,-142,22,8553.351,7835.881,-6786.283,9371.282,-961,-824,-188,,2018-06-16 11:45:09.275
18.01294,21,2040,-392,129,-177,-12,8585.335,7810.959,-6786.866,9362.416,,,,,2018-06-16 11:45:09.295
18.032929,8,2037,-401,109,-183,-113,8611.952,7802.726,-6784.03,9346.877,,,,,2018-06-16 11:45:09.315
18.052918,12,2022,-429,38,-138,-147,8638.558,7799.849,-6783.686,9324.95,,,,,2018-06-16 11:45:09.335
18.072907,38,2075,-469,-30,-122,-156,8651.16,7813.515,-6786.556,9299.704,-961,-824,-188,35101,2018-06-16 11:45:09.355
18.092896,18,2028,-486,-130,-30,-141,8665.361,7830.308,-6786.037,9272.698,-1261,-982,-613,,2018-06-16 11:45:09.375
18.112885,20,2020,-499,-77,-39,-187,8686.333,7842.701,-6770.609,9253.86,,,,,2018-06-16 11:45:09.395
18.132874,-22,2009,-441,33,2,-203,8702.587,7842.682,-6753.301,9251.252,,,,,2018-06-16 11:45:09.415
18.152863,0,2017,-408,143,9,-88,8724.642,7834.615,-6730.306,9254.071,,,,,2018-06-16 11:45:09.435
18.172852,-21,1989,-359,139,18,-125,8741.163,7832.415,-6711.171,9254.24,,,,,2018-06-16 11:45:09.455
18.192841,-8,2023,-368,97,2,-65,8746.811,7825.243,-6704.943,9259.483,-1188,-1141,-655,,2018-06-16 11:45:09.475
18.21283,-23,2048,-411,58,-5,26,8746.155,7816.858,-6706.342,9266.17,,,,,2018-06-16 11:45:09.495
18.232819,2,2053,-391,36,-15,33,8749.402,7810.506,-6704.578,9269.736,,,,,2018-06-16 11:45:09.515
18.252838,-1,2044,-397,41,-11,-11,8755.948,7805.261,-6701.131,9270.465,,,,,2018-06-16 11:45:09.535
18.272797,-6,1999,-401,35,-30,-22,8759.818,7801.781,-6703.744,9267.851,,,,,2018-06-16 11:45:09.555
18.292786,-9,2053,-484,-17,-34,-2,8755.915,7803.201,-6713.131,9263.547,-1191,-1108,-690,,2018-06-16 11:45:09.575
18.312775,-15,2106,-485,-80,-13,18,8744.042,7814.379,-6724.458,9257.122,,,,,2018-06-16 11:45:09.595
18.332764,12,2072,-519,-133,29,12,8733.15,7836.509,-6726.902,9246.915,,,,,2018-06-16 11:45:09.615
18.352753,-42,2132,-572,-150,85,-77,8714.435,7878.264,-6726.548,9229.331,,,,,2018-06-16 11:45:09.635
18.372742,15,2059,-448,-275,175,-106,8704.256,7903.843,-6708.782,9229.998,,,,,2018-06-16 11:45:09.655
18.392731,-20,2105,-388,33,165,-102,8707.691,7924.682,-6678.669,9230.728,-1240,-1014,-700,,2018-06-16 11:45:09.675
; 18 stopping logging: shutdown: switched off,,,,,,,,,,,,,,,