;Title, http://www.gcdataconcepts.com, HAM-IMU+alt, MPU9250 BMP280,,,,,,,,,,,,,
;Version,1379, Build date, Jan 12 2018,  SN:CCDC50029F4C138,,,,,,,,,,,,
;Start_time, 2018-03-01, 20:47:55.209,2018-03-01 20:47:55.209,,,,,,,,,,,,,
;Temperature,-999, deg C,  Vbat,3878, mv,,,,,,,,,,,
;MPU SR,200,Hz,  Accel sens,2048,counts/g, Gyro sens,16,counts/dps,  Mag SR,10,Hz,  Mag sens,1666,counts/mT,,
;BMP280 SI,0.5,s ,,,,,,,,,,,,,,
;Deadband,0, counts,,,,,,,,,,,,,,
;DeadbandTimeout,5,sec,,,,,,,,,,,,,,
;Time, Ax, Ay, Az, Gx, Gy, Gz, Qw, Qx, Qy, Qz, Mx, My, Mz, P, T,Date Time
0.006226,-2,46,-2126,-23,-76,4,16104.412,-2857.542,-916.405,279.285,277,-423,-396,99965,28230,2018-03-01 20:47:55.215
0.006592,-2,35,-2137,-22,-75,5,16102.943,-2865.028,-918.565,280.209,,,,,,2018-03-01 20:47:55.216
0.012177,-12,55,-2156,-24,-77,6,16101.455,-2872.567,-920.856,280.988,259,-421,-392,,,2018-03-01 20:47:55.221
0.012513,5,51,-2145,-24,-76,4,16100.011,-2879.843,-923.133,281.824,,,,,,2018-03-01 20:47:55.222
0.032196,-2,48,-2159,-24,-76,4,16098.549,-2887.227,-925.251,282.8,259,-421,-392,,,2018-03-01 20:47:55.241
0.032532,2,43,-2105,-23,-76,6,16097.079,-2894.59,-927.5,283.838,,,,,,2018-03-01 20:47:55.242
0.052033,5,42,-2151,-23,-77,7,16095.573,-2902.159,-929.682,284.825,259,-421,-392,99964,28230,2018-03-01 20:47:55.261
0.052369,2,43,-2127,-23,-75,6,16094.101,-2909.537,-931.839,285.701,,,,,,2018-03-01 20:47:55.261
0.072022,1,43,-2129,-22,-77,7,16092.639,-2916.908,-933.785,286.552,,,,,,2018-03-01 20:47:55.281
0.072388,-13,48,-2144,-22,-77,4,16091.207,-2924.045,-935.878,287.357,,,,,,2018-03-01 20:47:55.281
0.092011,-18,42,-2150,-23,-75,4,16089.782,-2931.044,-938.251,288.144,,,,,,2018-03-01 20:47:55.301
0.092347,-3,31,-2173,-23,-75,5,16088.382,-2937.994,-940.21,289.162,,,,,,2018-03-01 20:47:55.301
0.111969,-16,38,-2143,-21,-75,7,16086.967,-2945.011,-942.209,289.986,,,,,,2018-03-01 20:47:55.321
0.112336,6,46,-2196,-21,-77,5,16085.552,-2951.944,-944.299,291.155,,,,,,2018-03-01 20:47:55.321
0.131989,3,50,-2120,-23,-75,6,16084.178,-2958.702,-946.287,291.996,,,,,,2018-03-01 20:47:55.341
0.132325,-19,36,-2132,-22,-74,6,16082.733,-2965.791,-948.367,292.959,,,,,,2018-03-01 20:47:55.341
0.151947,13,40,-2150,-23,-74,6,16081.287,-2972.823,-950.597,293.831,270,-415,-398,,,2018-03-01 20:47:55.361
0.152314,-14,34,-2147,-23,-75,4,16079.822,-2979.986,-952.692,294.638,,,,,,2018-03-01 20:47:55.361
0.171723,-7,50,-2115,-24,-75,4,16078.367,-2987.151,-954.545,295.528,,,,,,2018-03-01 20:47:55.381
0.172058,-4,23,-2147,-21,-76,5,16076.901,-2994.281,-956.582,296.487,,,,,,2018-03-01 20:47:55.381
0.172425,1,46,-2133,-22,-75,7,16075.453,-3001.356,-958.52,297.244,,,,,,2018-03-01 20:47:55.381
0.191712,-7,46,-2147,-22,-76,4,16073.973,-3008.515,-960.672,297.927,,,,,,2018-03-01 20:47:55.401
0.211701,-16,37,-2140,-23,-77,4,16072.463,-3015.813,-962.841,298.637,,,,,,2018-03-01 20:47:55.421
0.23169,-4,42,-2132,-23,-77,3,16070.985,-3022.929,-964.9,299.577,,,,,,2018-03-01 20:47:55.441
0.251679,3,34,-2139,-22,-77,6,16069.51,-3030.036,-966.937,300.307,272,-420,-382,,,2018-03-01 20:47:55.461
0.271668,-24,31,-2126,-21,-78,4,16068.055,-3036.999,-969.022,301.13,,,,,,2018-03-01 20:47:55.481
0.291657,3,38,-2141,-24,-74,4,16066.528,-3044.323,-971.075,302.058,,,,,,2018-03-01 20:47:55.501
0.311646,7,45,-2132,-24,-77,4,16065.05,-3051.375,-973.121,302.928,,,,,,2018-03-01 20:47:55.521
0.331604,119,-93,-1926,-22,-77,5,16063.428,-3059.543,-974.06,303.53,,,,,,2018-03-01 20:47:55.541
0.351624,-41,33,-2239,4,-97,6,16061.952,-3066.867,-975.141,304.247,270,-413,-389,99961,28250,2018-03-01 20:47:55.561
0.371582,8,38,-2130,-24,-68,3,16060.715,-3072.606,-977.181,305.082,,,,,,2018-03-01 20:47:55.581
0.391571,4,50,-2175,-23,-71,5,16059.266,-3079.455,-979.184,305.893,,,,,,2018-03-01 20:47:55.601
0.41156,-20,39,-2145,-22,-76,4,16057.894,-3085.933,-981.151,306.333,,,,,,2018-03-01 20:47:55.621
0.431519,-339,-70,-2183,-24,-72,1,16057.296,-3088.833,-987.726,286.692,,,,,,2018-03-01 20:47:55.641
0.451538,105,51,-2173,-29,-64,-324,16057.056,-3090.634,-1004.455,213.144,279,-420,-396,,,2018-03-01 20:47:55.661
0.471497,344,52,-2161,-27,-70,-344,16056.099,-3094.795,-1014.936,171.05,,,,,,2018-03-01 20:47:55.680
0.491486,1,53,-2170,-22,-70,-184,16054.778,-3100.87,-1019.297,158.69,,,,,,2018-03-01 20:47:55.700
0.511505,-46,-3,-2096,-21,-70,-44,16053.413,-3107.211,-1021.906,155.932,,,,,,2018-03-01 20:47:55.721
0.531464,-37,12,-2103,-22,-72,0,16052.104,-3113.363,-1023.707,156.13,,,,,,2018-03-01 20:47:55.740
0.551453,65,43,-2150,-22,-72,-2,16051.047,-3117.884,-1028.736,140.751,276,-412,-392,,,2018-03-01 20:47:55.760
0.571442,231,-59,-2012,-21,-70,-180,16049.9,-3122.596,-1035.732,113.117,,,,,,2018-03-01 20:47:55.780
0.591431,135,-21,-2170,-21,-72,-146,16048.691,-3126.95,-1044.336,80.532,,,,,,2018-03-01 20:47:55.800
0.61142,140,-5,-2179,-24,-73,-215,16047.297,-3132.624,-1050.07,60.881,,,,,,2018-03-01 20:47:55.820
0.631409,39,43,-2139,-22,-74,-71,16045.905,-3139.044,-1052.331,58.102,,,,,,2018-03-01 20:47:55.840
0.651398,101,37,-2172,-23,-69,-4,16044.668,-3144.767,-1054.15,57.327,286,-413,-394,,,2018-03-01 20:47:55.860
0.671387,-15,10,-2120,-21,-66,-4,16043.466,-3150.386,-1055.656,57.314,,,,,,2018-03-01 20:47:55.880
0.691346,40,13,-2158,-21,-57,1,16044.003,-3147.061,-1057.302,59.33,,,,,,2018-03-01 20:47:55.900
0.711335,-25,49,-2133,-24,94,11,16047.897,-3126.52,-1058.968,62.549,,,,,,2018-03-01 20:47:55.920
0.731324,12,-9,-2124,-22,79,5,16052.821,-3100.456,-1060.808,64.978,,,,,,2018-03-01 20:47:55.940
0.751313,-44,-7,-2110,-21,122,0,16057.921,-3073.356,-1062.303,67.93,273,-419,-390,,,2018-03-01 20:47:55.960
0.771302,-21,22,-2122,-22,129,5,16064.011,-3040.826,-1063.619,71.277,,,,,,2018-03-01 20:47:55.980
0.791291,-42,42,-2191,-20,171,6,16070.974,-3003.145,-1065.26,74.592,,,,,,2018-03-01 20:47:56.000
0.81128,-146,37,-2021,-21,178,2,16078.825,-2960.198,-1066.749,78.099,,,,,,2018-03-01 20:47:56.020
0.831269,-131,29,-2094,-21,221,3,16085.83,-2921.341,-1068.005,81.569,,,,,,2018-03-01 20:47:56.040
0.851227,-89,30,-2175,-19,173,5,16092.868,-2881.775,-1069.145,85.602,279,-413,-389,99966,28240,2018-03-01 20:47:56.060
0.871247,-47,39,-2234,-21,226,9,16101.621,-2831.808,-1070.405,91.344,,,,,,2018-03-01 20:47:56.080
0.891205,-282,86,-2149,-23,276,15,16120.389,-2724.178,-1062.741,133.902,,,,,,2018-03-01 20:47:56.100
0.911194,-180,34,-2125,-6,901,293,16149.941,-2542.195,-1061.848,156.701,,,,,,2018-03-01 20:47:56.120
0.931244,-284,28,-2082,-29,1100,12,16184.205,-2312.523,-1062.686,172.896,,,,,,2018-03-01 20:47:56.140
0.951172,-312,41,-2091,-32,1397,4,16214.354,-2088.869,-1063.571,188.714,271,-412,-399,,,2018-03-01 20:47:56.160
0.971161,49,-97,-2218,-32,1120,6,16234.926,-1919.25,-1069.885,185.613,,,,,,2018-03-01 20:47:56.180
0.99115,-191,-33,-2243,-74,799,-234,16253.344,-1756.832,-1061.483,225.955,,,,,,2018-03-01 20:47:56.200
1.011109,-358,30,-2150,27,1211,308,16279.816,-1492.257,-1038.33,313.156,,,,,,2018-03-01 20:47:56.220
1.031098,-436,58,-2056,59,1778,409,16309.795,-1112.767,-1018.852,386.93,,,,,,2018-03-01 20:47:56.240
1.051087,-1299,117,-1739,-2,2333,137,16334.603,-645.222,-1004.291,437.347,259,-405,-404,,,2018-03-01 20:47:56.260
1.071076,-912,85,-1905,0,2748,110,16346.213,-161.481,-990.213,479.757,,,,,,2018-03-01 20:47:56.280
1.091065,-1087,141,-1909,0,2711,106,16344.644,248.411,-971.574,531.411,,,,,,2018-03-01 20:47:56.300
1.111054,-987,3,-1938,23,2211,136,16334.495,614.527,-953.553,576.894,,,,,,2018-03-01 20:47:56.320
1.131043,-1209,20,-1815,1,2057,100,16316.977,965.437,-937.053,617.695,,,,,,2018-03-01 20:47:56.340
1.151032,-1139,4,-1718,44,1969,154,16291.2,1325.828,-921.283,652.413,231,-420,-407,,,2018-03-01 20:47:56.360
1.171021,-1315,53,-1585,-30,2126,20,16257.157,1690.139,-911.495,672.966,,,,,,2018-03-01 20:47:56.380
1.19101,-1162,67,-1788,-37,2029,8,16216.632,2040.488,-901.634,692.631,,,,,,2018-03-01 20:47:56.400
1.210999,-1426,249,-1599,-29,1943,12,16173.99,2350.432,-872.205,743.116,,,,,,2018-03-01 20:47:56.420
1.230988,-1468,110,-1262,232,1660,329,16127.63,2642.933,-830.795,812.199,,,,,,2018-03-01 20:47:56.440
1.250946,-1312,-1,-1510,172,1708,253,16069.58,2972.414,-815.022,839.357,174,-420,-417,,,2018-03-01 20:47:56.460
1.270966,-1468,121,-1389,-37,1985,20,15996.762,3340.049,-802.035,860.139,,,,,,2018-03-01 20:47:56.480
1.290924,-1615,12,-1461,-39,2118,28,15916.363,3700.212,-767.077,908.207,,,,,,2018-03-01 20:47:56.500
1.310913,-1632,92,-1233,163,2050,190,15833.079,4037.956,-732.904,952.267,,,,,,2018-03-01 20:47:56.520
1.330902,-1683,123,-1296,68,1956,112,15753.165,4337.657,-720.262,969.114,,,,,,2018-03-01 20:47:56.540
1.350891,-1620,7,-1345,-51,1668,8,15675.27,4612.925,-751.174,937.014,124,-430,-426,99966,28250,2018-03-01 20:47:56.560
1.37088,-1604,93,-1303,-443,1381,-245,15612.512,4820.766,-748.539,940.641,,,,,,2018-03-01 20:47:56.580
1.39087,-1961,-121,-895,28,990,40,15564.713,4963.7,-635.154,1064.619,,,,,,2018-03-01 20:47:56.600
1.410859,-1641,38,-1065,1095,957,677,15516.004,5094.095,-484.458,1226.598,,,,,,2018-03-01 20:47:56.620
1.430848,-1715,-10,-1077,1307,898,739,15459.954,5247.045,-394.455,1318.405,,,,,,2018-03-01 20:47:56.640
1.450806,-1621,105,-1314,-38,976,11,15383.167,5478.052,-439.571,1261.483,70,-419,-418,,,2018-03-01 20:47:56.660
1.470795,-1780,18,-992,-778,1624,-362,15300.027,5712.336,-471.423,1221.303,,,,,,2018-03-01 20:47:56.680
1.490784,-1815,67,-1054,-124,1193,-35,15209.365,5948.95,-452.765,1231.109,,,,,,2018-03-01 20:47:56.700
1.510773,-2114,32,-606,101,1634,57,15080.843,6257.787,-358.559,1309.634,,,,,,2018-03-01 20:47:56.720
1.530762,-1794,228,-781,516,1964,236,14947.753,6571.346,-356.49,1300.168,,,,,,2018-03-01 20:47:56.740
1.550751,-2211,140,-1152,-700,2182,-193,14808.8,6890.012,-446.437,1209.667,33,-425,-403,,,2018-03-01 20:47:56.760
1.57074,-1914,149,-1600,-1190,2106,-310,14662.275,7205.9,-579.888,1091.725,,,,,,2018-03-01 20:47:56.780
1.590729,-1934,52,-494,-885,1817,-187,14544.555,7441.36,-583.785,1084.766,,,,,,2018-03-01 20:47:56.800
1.610718,-2085,72,-433,-46,1417,-9,14434.353,7653.419,-571.271,1087.979,,,,,,2018-03-01 20:47:56.820
1.630707,-2006,48,-485,-29,1205,-11,14345.499,7819.132,-561.863,1089.766,,,,,,2018-03-01 20:47:56.840
1.650666,-2052,82,-335,-38,1017,-6,14250.893,7991.035,-565.68,1082.06,11,-423,-384,,,2018-03-01 20:47:56.860
1.670655,-2133,8,-155,-245,959,-26,14184.47,8109.351,-589.744,1061.545,,,,,,2018-03-01 20:47:56.880
1.690644,-2192,42,-96,-249,514,-28,14157.117,8158.047,-630.933,1029.399,,,,,,2018-03-01 20:47:56.900
1.710633,-2059,90,-325,-351,180,-36,14145.825,8177.861,-690.483,988.38,,,,,,2018-03-01 20:47:56.920
1.730622,-2044,164,-492,-432,-34,-21,14139.527,8188.318,-738.187,956.943,,,,,,2018-03-01 20:47:56.940
1.750611,-2044,67,-222,-187,13,-2,14130.997,8202.958,-742.828,953.964,-26,-426,-353,,,2018-03-01 20:47:56.960
1.7706,-1988,29,-331,-21,100,6,14117.375,8226.331,-744.171,953.328,,,,,,2018-03-01 20:47:56.980
1.790711,-2189,372,-36,-23,162,5,14059.917,8324.139,-757.344,943.029,,,,,,2018-03-01 20:47:57.000
1.810608,-2035,94,-235,-345,954,-23,14017.497,8394.355,-813.009,905.002,,,,,,2018-03-01 20:47:57.020
1.830597,-2053,153,-255,-395,219,-13,13998.528,8424.33,-870.529,865.732,,,,,,2018-03-01 20:47:57.040
1.850586,-2097,99,-262,-381,166,-19,13972.224,8466.924,-897.985,846.885,-35,-421,-335,99963,28250,2018-03-01 20:47:57.060
1.870575,-2065,2,-200,-133,233,-7,13946.676,8508.865,-902.773,842.547,,,,,,2018-03-01 20:47:57.080
1.890534,-2035,196,-151,-31,261,3,13928.522,8538.669,-901.822,842.352,,,,,,2018-03-01 20:47:57.100
1.910523,-2081,230,603,34,-77,5,13902.256,8581.909,-886.721,852.806,,,,,,2018-03-01 20:47:57.120
1.930512,-2035,59,-223,240,494,12,13878.449,8620.517,-882.978,855.061,,,,,,2018-03-01 20:47:57.140
1.950501,-2111,54,-39,-28,208,2,13835.082,8689.958,-882.141,855.81,-47,-409,-339,,,2018-03-01 20:47:57.160
1.97049,-2089,70,-217,-29,427,2,13807.45,8733.617,-888.404,851.138,,,,,,2018-03-01 20:47:57.179
1.990479,-2086,55,-59,-154,224,1,13786.304,8766.631,-896.146,846.38,,,,,,2018-03-01 20:47:57.199
2.010468,-2121,58,-48,-26,208,7,13767.449,8796.129,-897.697,845.602,,,,,,2018-03-01 20:47:57.219
2.030457,-1987,56,-230,-24,140,7,13767.83,8795.499,-900.629,842.816,,,,,,2018-03-01 20:47:57.239
2.050415,-2083,70,-134,-20,-149,4,13762.289,8804.095,-902.54,841.516,-52,-407,-323,,,2018-03-01 20:47:57.259
2.070435,-2048,47,-135,-17,133,8,13733.902,8848.289,-902.207,842.116,,,,,,2018-03-01 20:47:57.279
2.090393,-2094,60,-50,-20,336,8,13695.315,8908.356,-889.844,850.381,,,,,,2018-03-01 20:47:57.299
2.110382,-2090,31,149,161,322,0,13668.511,8950.363,-864.944,866.098,,,,,,2018-03-01 20:47:57.319
2.130371,-2051,55,-32,88,194,4,13662.722,8959.246,-865.949,864.578,,,,,,2018-03-01 20:47:57.339
2.150422,-2089,68,-14,-26,-64,3,13663.964,8957.362,-869.173,861.235,-54,-402,-314,,,2018-03-01 20:47:57.359
2.170349,-2045,12,-13,-28,-25,5,13660.569,8962.516,-872.168,858.433,,,,,,2018-03-01 20:47:57.379
2.190339,-2111,55,28,-28,-13,5,13663.472,8958.104,-875.454,854.937,,,,,,2018-03-01 20:47:57.399
2.210328,-2075,53,-27,-25,-108,4,13672.79,8943.874,-879.361,850.93,,,,,,2018-03-01 20:47:57.419
2.230317,-2081,59,49,-25,-126,6,13674.108,8941.863,-882.431,847.704,,,,,,2018-03-01 20:47:57.439
2.250275,-2083,42,-21,-23,4,4,13674.089,8941.857,-885.282,845.1,-51,-408,-308,,,2018-03-01 20:47:57.459
2.270264,-2127,43,55,-23,21,7,13662.752,8959.11,-887.292,843.634,,,,,,2018-03-01 20:47:57.479
2.290253,-2101,59,76,-25,116,6,13654.086,8972.269,-889.632,841.613,,,,,,2018-03-01 20:47:57.499
2.310242,-2079,56,-8,-22,65,7,13655.375,8970.308,-892.579,838.481,,,,,,2018-03-01 20:47:57.519
2.330231,-2076,44,23,-25,-83,3,13659.914,8963.358,-896.293,834.895,,,,,,2018-03-01 20:47:57.539
2.35022,-2082,47,-2,-27,-74,5,13666.321,8953.594,-899.927,830.888,-59,-417,-314,99961,28260,2018-03-01 20:47:57.559
2.370179,-2083,40,10,-26,-97,4,13672.781,8943.749,-903.192,827.101,,,,,,2018-03-01 20:47:57.579
2.390198,-2086,66,13,-22,-118,2,13688.082,8920.38,-906.878,822.345,,,,,,2018-03-01 20:47:57.599
2.410187,-2070,65,-52,-23,-217,4,13703.302,8897.027,-910.778,817.522,,,,,,2018-03-01 20:47:57.619
2.430146,-2069,50,-23,-24,-182,1,13711.054,8885.096,-913.97,813.729,,,,,,2018-03-01 20:47:57.639
2.450165,-2082,55,-20,-25,-92,4,13714.692,8879.452,-917.337,810.235,-69,-409,-305,,,2018-03-01 20:47:57.659
2.470124,-2070,59,-27,-27,-73,4,13721.817,8868.439,-920.838,806.237,,,,,,2018-03-01 20:47:57.679
2.490113,-2073,57,-20,-24,-117,3,13728.322,8858.371,-924.225,802.295,,,,,,2018-03-01 20:47:57.699
2.510102,-2083,61,-27,-24,-96,4,13731.833,8852.915,-927.398,798.756,,,,,,2018-03-01 20:47:57.719
2.530091,-2065,44,-11,-25,-60,2,13732.388,8852.017,-930.482,795.577,,,,,,2018-03-01 20:47:57.739
2.55008,-2063,51,-18,-24,-47,4,13735.041,8847.893,-933.495,792.132,-50,-407,-305,,,2018-03-01 20:47:57.759
2.570069,-2072,49,-3,-24,-83,4,13739.654,8840.709,-936.858,788.35,,,,,,2018-03-01 20:47:57.779
2.590027,-2078,54,-17,-26,-84,2,13743.259,8835.093,-939.911,784.832,,,,,,2018-03-01 20:47:57.799
2.610047,-2074,48,-39,-23,-75,3,13745.562,8831.471,-943.151,781.369,,,,,,2018-03-01 20:47:57.819
2.630005,-2085,55,-29,-27,-57,5,13746.91,8829.343,-946.154,778.057,,,,,,2018-03-01 20:47:57.839
2.649994,-2064,53,-10,-25,-60,2,13748.304,8827.149,-949.064,774.771,-65,-418,-308,,,2018-03-01 20:47:57.859
2.669983,-2087,52,8,-24,-44,4,13747.565,8828.262,-951.969,771.656,,,,,,2018-03-01 20:47:57.879
2.689972,-2071,55,-23,-26,-30,6,13748.838,8826.23,-955.138,768.279,,,,,,2018-03-01 20:47:57.899
2.709961,-2083,44,-43,-25,-71,3,13752.504,8820.486,-958.271,764.734,,,,,,2018-03-01 20:47:57.919
2.72992,-2084,53,-17,-24,-86,6,13756.259,8814.582,-961.575,761.116,,,,,,2018-03-01 20:47:57.939
2.749939,-2072,57,-13,-25,-67,3,13758.079,8811.688,-964.714,757.744,-59,-405,-309,,,2018-03-01 20:47:57.959
2.769928,-2077,66,-39,-26,-60,4,13760.127,8808.442,-967.802,754.356,,,,,,2018-03-01 20:47:57.979
2.789887,-2065,62,6,-24,-71,5,13761.367,8806.459,-970.735,751.114,,,,,,2018-03-01 20:47:57.999
2.809876,-2076,46,-22,-23,-55,5,13764.244,8801.921,-973.728,747.701,,,,,,2018-03-01 20:47:58.019
2.829865,-2072,47,-22,-25,-66,4,13766.343,8798.577,-976.768,744.442,,,,,,2018-03-01 20:47:58.039
2.849854,-2080,51,-20,-24,-59,5,13767.534,8796.614,-980.009,741.346,-64,-400,-314,99967,28270,2018-03-01 20:47:58.059
2.869873,-2077,66,-7,-25,-50,7,13769.865,8792.922,-982.883,738.046,,,,,,2018-03-01 20:47:58.079
2.889832,-2067,64,-6,-22,-77,4,13773.345,8787.431,-985.973,734.381,,,,,,2018-03-01 20:47:58.099
2.909821,-2070,46,-19,-24,-78,3,13776.4,8782.579,-989.138,730.843,,,,,,2018-03-01 20:47:58.119
2.92981,-2070,62,-43,-26,-56,3,13778.284,8779.542,-992.397,727.4,,,,,,2018-03-01 20:47:58.139
2.949768,-2070,54,1,-26,-64,3,13780.845,8775.449,-995.568,723.935,-60,-411,-308,,,2018-03-01 20:47:58.159
2.969788,-2083,50,15,-24,-72,4,13784.101,8770.258,-998.643,720.614,,,,,,2018-03-01 20:47:58.179
2.989746,-2071,55,1,-25,-75,5,13787.346,8765.068,-1001.794,717.295,,,,,,2018-03-01 20:47:58.199
3.009735,-2079,52,-8,-25,-68,4,13789.789,8761.166,-1004.823,713.758,,,,,,2018-03-01 20:47:58.219
3.029724,-2067,44,-2,-24,-74,4,13793.032,8755.989,-1007.938,710.221,,,,,,2018-03-01 20:47:58.239
3.049714,-2083,59,-16,-23,-77,4,13796.615,8750.285,-1010.929,706.663,-57,-409,-309,,,2018-03-01 20:47:58.259
3.069703,-2064,48,7,-24,-76,3,13798.762,8746.808,-1014.086,703.259,,,,,,2018-03-01 20:47:58.279
3.089692,-2069,50,-12,-26,-64,4,13801.439,8742.474,-1017.338,699.915,,,,,,2018-03-01 20:47:58.299
3.109681,-2075,50,7,-24,-72,5,13803.971,8738.383,-1020.362,696.652,,,,,,2018-03-01 20:47:58.319
3.12967,-2082,47,-1,-23,-69,6,13806.364,8734.546,-1023.21,693.182,,,,,,2018-03-01 20:47:58.339
3.149659,-2089,54,7,-25,-61,5,13808.44,8731.145,-1026.489,689.814,-61,-409,-305,,,2018-03-01 20:47:58.359
3.169617,-2085,74,-11,-27,-61,3,13810.389,8727.938,-1029.831,686.381,,,,,,2018-03-01 20:47:58.379
3.189606,-2064,44,6,-27,-61,5,13812.621,8724.287,-1033.039,683.056,,,,,,2018-03-01 20:47:58.399
3.209595,-2065,50,-14,-25,-67,4,13814.442,8721.296,-1036.187,679.674,,,,,,2018-03-01 20:47:58.419
3.229584,-2065,53,-12,-26,-52,6,13816.405,8718.052,-1039.376,676.491,,,,,,2018-03-01 20:47:58.439
3.249573,-2077,40,-1,-25,-75,5,13820.246,8711.844,-1042.59,673.062,-65,-415,-308,,,2018-03-01 20:47:58.459
3.269562,-2063,42,-30,-24,-84,4,13823.902,8705.926,-1045.908,669.396,,,,,,2018-03-01 20:47:58.479
3.289551,-2070,41,15,-25,-74,4,13826.806,8701.198,-1049.13,665.841,,,,,,2018-03-01 20:47:58.499
3.30951,-2071,45,16,-26,-77,5,13830.16,8695.747,-1052.401,662.221,,,,,,2018-03-01 20:47:58.519
3.329499,-2080,51,-12,-26,-82,3,13834.77,8688.315,-1055.466,658.586,,,,,,2018-03-01 20:47:58.538
3.349518,-2075,34,-6,-24,-89,3,13839.521,8680.623,-1058.808,654.835,-65,-399,-311,99963,28260,2018-03-01 20:47:58.559
3.369568,-2086,53,-31,-25,-89,4,13843.115,8674.776,-1061.95,651.241,,,,,,2018-03-01 20:47:58.579
3.389466,-2070,55,-18,-26,-74,3,13845.466,8670.888,-1065.228,647.686,,,,,,2018-03-01 20:47:58.598
3.409455,-2053,58,-13,-26,-72,4,13849.155,8664.857,-1068.64,643.896,,,,,,2018-03-01 20:47:58.618
3.429444,-2066,41,-20,-26,-96,5,13852.992,8658.606,-1071.764,640.235,,,,,,2018-03-01 20:47:58.638
3.449433,-2084,49,-36,-24,-78,3,13855.029,8655.24,-1074.7,636.732,-57,-412,-314,,,2018-03-01 20:47:58.658
3.469422,-2083,38,12,-24,-62,4,13856.405,8652.894,-1077.738,633.537,,,,,,2018-03-01 20:47:58.678
3.489411,-2082,66,-7,-24,-58,3,13858.852,8648.86,-1080.724,630.009,,,,,,2018-03-01 20:47:58.698
3.5094,-2063,46,-23,-25,-75,4,13862.416,8642.997,-1083.971,626.458,,,,,,2018-03-01 20:47:58.718
3.529358,-2076,50,-7,-25,-81,5,13866.369,8636.519,-1087.135,622.82,,,,,,2018-03-01 20:47:58.738
3.549378,-2074,57,-19,-25,-89,4,13870.585,8629.618,-1090.281,619.101,-51,-413,-318,,,2018-03-01 20:47:58.758
3.569336,-2073,43,-14,-25,-90,4,13873.186,8625.265,-1093.571,615.665,,,,,,2018-03-01 20:47:58.778
3.589325,-2077,49,-34,-25,-64,5,13875.858,8620.798,-1096.873,612.133,,,,,,2018-03-01 20:47:58.798
3.609314,-2083,43,-10,-26,-79,5,13879.76,8614.341,-1100.228,608.551,,,,,,2018-03-01 20:47:58.818
3.629303,-2074,54,1,-26,-87,4,13883.381,8608.368,-1103.299,604.891,,,,,,2018-03-01 20:47:58.838
3.649292,-2086,56,-24,-25,-78,4,13885.95,8604.082,-1106.282,601.451,-54,-407,-303,,,2018-03-01 20:47:58.858
3.669281,-2080,57,-26,-24,-72,4,13889.304,8598.482,-1109.62,597.926,,,,,,2018-03-01 20:47:58.878
3.68924,-2068,53,-20,-25,-82,4,13893.049,8592.236,-1113.055,594.314,,,,,,2018-03-01 20:47:58.898
3.709259,-2090,39,-43,-26,-84,6,13896.283,8586.789,-1116.601,590.766,,,,,,2018-03-01 20:47:58.918
3.729248,-2086,59,-4,-27,-74,5,13899.156,8581.957,-1119.833,587.268,,,,,,2018-03-01 20:47:58.938
3.749207,-2083,62,-30,-24,-78,5,13902.174,8576.889,-1123.001,583.807,-69,-409,-309,,,2018-03-01 20:47:58.958
3.769196,-2075,49,-23,-25,-76,4,13905.239,8571.749,-1126.132,580.256,,,,,,2018-03-01 20:47:58.978
3.789185,-2062,44,-11,-25,-80,5,13908.8,8565.802,-1129.239,576.693,,,,,,2018-03-01 20:47:58.998
3.809174,-2102,64,-13,-24,-84,6,13911.981,8560.454,-1132.391,573.192,,,,,,2018-03-01 20:47:59.018
3.829163,-2056,57,3,-24,-75,6,13915.18,8555.087,-1135.402,569.695,,,,,,2018-03-01 20:47:59.038
3.849152,-2064,40,-16,-25,-72,4,13918.182,8550.028,-1138.431,566.243,-54,-407,-305,,,2018-03-01 20:47:59.058
3.869141,-2071,42,-4,-25,-71,5,13920.004,8546.886,-1141.462,562.778,-54,-407,-305,99964,28280,2018-03-01 20:47:59.078
3.88913,-2075,54,-6,-25,-62,4,13922.166,8543.191,-1144.521,559.18,,,,,,2018-03-01 20:47:59.098
3.909119,-2078,50,-55,-25,-68,3,13924.814,8538.72,-1147.427,555.564,,,,,,2018-03-01 20:47:59.118
3.929078,-2069,62,-22,-25,-68,4,13927.951,8533.409,-1150.562,552.027,,,,,,2018-03-01 20:47:59.138
3.949067,-2052,53,-23,-25,-82,4,13930.828,8528.527,-1153.59,548.564,-59,-400,-312,,,2018-03-01 20:47:59.158
3.969056,-2083,59,-32,-23,-73,6,13931.859,8526.651,-1156.573,545.252,,,,,,2018-03-01 20:47:59.178
3.989045,-2067,41,-17,-25,-43,4,13931.954,8526.32,-1159.46,541.865,,,,,,2018-03-01 20:47:59.198
4.009034,-2093,55,-27,-25,-51,3,13933.657,8523.339,-1162.51,538.427,,,,,,2018-03-01 20:47:59.218
4.029023,-2069,73,-23,-25,-73,5,13937.128,8517.482,-1165.611,534.548,,,,,,2018-03-01 20:47:59.238
4.048981,-2078,62,-9,-25,-83,4,13940.657,8511.49,-1168.826,530.951,-59,-400,-303,,,2018-03-01 20:47:59.258
4.069001,-2079,58,4,-26,-84,4,13943.415,8506.756,-1172.035,527.288,,,,,,2018-03-01 20:47:59.278
4.088959,-2060,56,-3,-26,-74,4,13945.955,8502.4,-1175.047,523.666,,,,,,2018-03-01 20:47:59.298
4.108948,-2070,56,11,-23,-71,4,13947.379,8499.88,-1177.906,520.211,,,,,,2018-03-01 20:47:59.318
4.128968,-2067,46,2,-24,-53,2,13948.24,8498.226,-1181.092,516.92,,,,,,2018-03-01 20:47:59.338
4.148926,-2082,60,11,-25,-60,4,13951.335,8492.939,-1184.16,513.269,-59,-412,-307,,,2018-03-01 20:47:59.358
4.168915,-2076,45,-11,-25,-84,4,13955.326,8486.142,-1187.402,509.674,,,,,,2018-03-01 20:47:59.378
4.188904,-2085,35,-17,-25,-89,5,13958.89,8480.051,-1190.636,505.895,,,,,,2018-03-01 20:47:59.398
4.208893,-2075,50,-29,-27,-76,4,13961.375,8475.751,-1193.646,502.283,,,,,,2018-03-01 20:47:59.418
4.228882,-2076,56,-30,-23,-67,4,13963.964,8471.264,-1196.664,498.824,,,,,,2018-03-01 20:47:59.438
4.248841,-2078,57,-3,-25,-66,3,13966.792,8466.367,-1199.764,495.324,-59,-409,-303,,,2018-03-01 20:47:59.458
4.26883,-2060,43,-10,-24,-78,6,13971.066,8459.091,-1202.887,491.522,,,,,,2018-03-01 20:47:59.478
4.288819,-2072,54,-1,-26,-95,2,13975.525,8451.503,-1206,487.632,,,,,,2018-03-01 20:47:59.498
4.308808,-2086,43,-20,-25,-90,5,13978.802,8445.813,-1209.329,484.021,,,,,,2018-03-01 20:47:59.518
4.328797,-2060,44,-4,-24,-71,5,13980.623,8442.561,-1212.348,480.592,,,,,,2018-03-01 20:47:59.538
4.348786,-2065,54,9,-25,-63,4,13982.734,8438.836,-1215.389,476.923,-61,-414,-309,,,2018-03-01 20:47:59.558
4.368775,-2086,32,-10,-25,-70,3,13985.64,8433.773,-1218.475,473.388,-61,-414,-309,99967,28280,2018-03-01 20:47:59.578
4.388764,-2067,59,-1,-25,-80,5,13988.435,8428.865,-1221.779,469.695,,,,,,2018-03-01 20:47:59.598
4.408753,-2087,48,-33,-26,-68,5,13990.509,8425.178,-1224.816,466.128,,,,,,2018-03-01 20:47:59.618
4.428742,-2080,49,-16,-25,-69,3,13993.524,8419.95,-1227.754,462.35,,,,,,2018-03-01 20:47:59.638
4.4487,-2083,67,-14,-25,-85,3,13997.071,8413.782,-1231.046,458.511,-66,-417,-300,,,2018-03-01 20:47:59.658
4.46872,-2069,52,-50,-26,-82,3,14000.243,8408.243,-1234.085,455.108,,,,,,2018-03-01 20:47:59.678
4.488709,-2072,70,-10,-23,-77,4,14002.861,8403.623,-1237.144,451.576,,,,,,2018-03-01 20:47:59.698
4.508667,-2068,42,-20,-26,-71,4,14005.156,8399.545,-1240.107,448.123,,,,,,2018-03-01 20:47:59.718
4.528656,-2050,48,-22,-23,-76,3,14009.554,8391.959,-1243.152,444.329,,,,,,2018-03-01 20:47:59.738
4.548645,-2064,59,-16,-23,-100,4,14014.024,8384.252,-1246.113,440.54,-50,-414,-312,,,2018-03-01 20:47:59.758
4.568634,-2060,54,-9,-23,-90,4,14017.361,8378.425,-1248.997,437.056,,,,,,2018-03-01 20:47:59.778
4.588684,-2051,47,-23,-24,-77,4,14019.934,8373.834,-1252.119,433.565,,,,,,2018-03-01 20:47:59.798
4.608643,-2076,43,-11,-25,-66,4,14021.576,8370.815,-1255.075,430.19,,,,,,2018-03-01 20:47:59.818
4.628601,-2073,45,-22,-25,-66,4,14024.184,8366.159,-1258.185,426.668,,,,,,2018-03-01 20:47:59.838
4.64859,-2080,44,-27,-23,-76,5,14027.919,8359.638,-1261.146,422.926,-65,-411,-308,,,2018-03-01 20:47:59.858
4.668549,-2080,61,-13,-23,-93,5,14030.875,8354.378,-1264.255,419.54,,,,,,2018-03-01 20:47:59.878
4.688538,-2072,35,-3,-24,-68,6,14032.174,8351.898,-1267.295,416.287,,,,,,2018-03-01 20:47:59.898
4.708527,-2078,55,-28,-25,-59,6,14033.113,8350.019,-1270.331,413.026,,,,,,2018-03-01 20:47:59.918
4.728516,-2083,49,-9,-25,-57,5,14034.888,8346.747,-1273.406,409.396,,,,,,2018-03-01 20:47:59.938
4.748505,-2071,60,-41,-24,-70,4,14037.361,8342.328,-1276.267,405.743,-46,-418,-313,,,2018-03-01 20:47:59.958
4.768494,-2078,45,-34,-25,-76,3,14039.882,8337.792,-1279.328,402.111,,,,,,2018-03-01 20:47:59.977
4.788453,-2086,60,-23,-25,-68,4,14042.113,8333.726,-1282.458,398.51,,,,,,2018-03-01 20:47:59.997
4.808411,-2067,53,-21,-26,-77,5,14045.208,8328.199,-1285.569,394.933,,,,,,2018-03-01 20:48:00.017
4.828431,-2092,42,-18,-25,-83,6,14047.904,8323.352,-1288.637,391.219,,,,,,2018-03-01 20:48:00.037
4.848389,-2080,60,-1,-24,-67,3,14049.929,8319.632,-1291.63,387.75,-54,-407,-316,,,2018-03-01 20:48:00.057
4.868409,-2070,34,-37,-25,-69,4,14051.998,8315.842,-1294.552,384.311,-54,-407,-316,99964,28270,2018-03-01 20:48:00.077
4.888367,-2068,47,-2,-22,-70,3,14054.514,8311.307,-1297.385,380.859,,,,,,2018-03-01 20:48:00.097
4.908356,-2078,56,-19,-24,-78,4,14057.473,8305.975,-1300.559,377.107,,,,,,2018-03-01 20:48:00.117
4.928345,-2084,51,-17,-24,-78,4,14059.814,8301.691,-1303.657,373.452,,,,,,2018-03-01 20:48:00.137
4.948334,-2070,51,10,-25,-70,3,14061.997,8297.685,-1306.628,369.897,-61,-405,-300,,,2018-03-01 20:48:00.157
4.968323,-2098,63,-23,-24,-71,5,14064.671,8292.836,-1309.655,366.24,,,,,,2018-03-01 20:48:00.177
4.988312,-2064,66,-17,-25,-79,3,14068.568,8285.893,-1312.795,362.466,,,,,,2018-03-01 20:48:00.197
5.008271,-2085,56,-18,-25,-101,5,14071.004,8281.419,-1315.938,358.723,,,,,,2018-03-01 20:48:00.217
5.02829,-2073,46,-28,-27,-70,4,14073.328,8277.104,-1319.175,355.232,,,,,,2018-03-01 20:48:00.237
5.048249,-2072,56,-12,-25,-76,4,14076.536,8271.337,-1322.169,351.292,-57,-407,-303,,,2018-03-01 20:48:00.257
5.068238,-2070,57,-37,-24,-84,3,14079.334,8266.219,-1325.362,347.587,,,,,,2018-03-01 20:48:00.277
5.088227,-2064,54,-4,-25,-76,5,14081.591,8262.022,-1328.476,344.068,,,,,,2018-03-01 20:48:00.297
5.108216,-2097,55,-24,-25,-73,4,14084.295,8257.079,-1331.478,340.408,,,,,,2018-03-01 20:48:00.317
5.128205,-2086,39,-20,-24,-81,4,14086.936,8252.241,-1334.501,336.585,,,,,,2018-03-01 20:48:00.337
5.148194,-2084,36,-3,-25,-74,4,14089.327,8247.826,-1337.47,332.936,-50,-409,-300,,,2018-03-01 20:48:00.357
5.168183,-2075,49,4,-25,-77,4,14091.813,8243.265,-1340.284,329.331,,,,,,2018-03-01 20:48:00.377
5.188172,-2064,57,-1,-23,-74,3,14096.284,8235.241,-1343.614,325.133,,,,,,2018-03-01 20:48:00.397
5.208161,-2095,44,-6,-27,-114,3,14103.354,8222.754,-1346.992,320.588,,,,,,2018-03-01 20:48:00.417
5.228119,-2078,63,8,-26,-128,4,14109.746,8211.424,-1350.239,316.024,,,,,,2018-03-01 20:48:00.437
5.248108,-2085,38,-4,-25,-90,4,14111.346,8208.322,-1353.268,312.19,-66,-409,-303,,,2018-03-01 20:48:00.457
5.268097,-2064,46,-20,-27,-57,3,14114.758,8202.118,-1356.21,308.229,,,,,,2018-03-01 20:48:00.477
5.288117,-2057,54,-44,-25,-129,3,14126.433,8181.683,-1359.307,302.749,,,,,,2018-03-01 20:48:00.497
5.308075,-2071,54,-21,-27,-229,3,14140.237,8157.491,-1362.401,297.217,,,,,,2018-03-01 20:48:00.517
5.328064,-2083,56,-42,-24,-195,4,14151.541,8137.549,-1365.364,292.23,,,,,,2018-03-01 20:48:00.537
5.348053,-2067,45,-18,-24,-131,5,14155.744,8129.894,-1368.166,288.578,-59,-409,-305,,,2018-03-01 20:48:00.557
5.368042,-2062,51,-56,-23,-94,5,14158.857,8124.128,-1370.966,284.941,-59,-409,-305,99962,28290,2018-03-01 20:48:00.577
5.388031,-2056,63,-44,-23,-74,3,14159.662,8122.347,-1373.875,281.676,,,,,,2018-03-01 20:48:00.597
5.40799,-2075,29,-56,-24,-48,5,14159.825,8121.706,-1376.618,278.569,,,,,,2018-03-01 20:48:00.617
5.427979,-2066,44,-27,-23,-52,7,14158.739,8123.196,-1379.556,275.768,,,,,,2018-03-01 20:48:00.637
5.447968,-2082,53,-33,-24,-26,4,14157.153,8125.59,-1382.313,272.87,-69,-414,-312,,,2018-03-01 20:48:00.657
5.467957,-2075,40,-61,-24,-41,5,14159.656,8120.842,-1385.2,269.664,,,,,,2018-03-01 20:48:00.677
5.487946,-2067,41,-37,-22,-91,6,14164.242,8112.51,-1387.882,265.789,,,,,,2018-03-01 20:48:00.697
5.507935,-2084,65,-14,-24,-101,4,14165.783,8109.446,-1390.657,262.673,,,,,,2018-03-01 20:48:00.717
5.527924,-2072,40,-55,-23,-41,6,14167.111,8106.741,-1393.497,259.452,,,,,,2018-03-01 20:48:00.737
5.547913,-2086,55,-19,-23,-81,5,14170.527,8100.386,-1396.365,255.94,-57,-417,-316,,,2018-03-01 20:48:00.757
5.567902,-2079,41,-28,-24,-84,6,14173.46,8094.888,-1399.098,252.55,,,,,,2018-03-01 20:48:00.777
5.58786,-2084,46,-28,-21,-76,4,14175.36,8091.178,-1401.927,249.093,,,,,,2018-03-01 20:48:00.797
5.607849,-2080,64,-62,-24,-71,4,14176.731,8088.366,-1404.843,245.968,,,,,,2018-03-01 20:48:00.817
5.627839,-2089,36,3,-23,-59,6,14177.44,8086.715,-1407.732,242.815,,,,,,2018-03-01 20:48:00.837
5.647828,-2073,76,-63,-25,-79,4,14184.314,8074.265,-1410.633,238.805,-65,-418,-304,,,2018-03-01 20:48:00.857
5.667817,-2084,39,-32,-22,-119,6,14188.472,8066.545,-1413.599,235.144,,,,,,2018-03-01 20:48:00.877
5.687806,-2052,52,-65,-24,-89,6,14191.34,8061.107,-1416.403,231.646,,,,,,2018-03-01 20:48:00.897
5.707795,-2089,77,-29,-23,-85,5,14193.589,8056.763,-1419.143,228.173,,,,,,2018-03-01 20:48:00.917
5.727753,-2076,61,-18,-24,-54,5,14194.375,8054.95,-1422.044,225.219,,,,,,2018-03-01 20:48:00.937
5.747742,-2068,48,-43,-23,-70,7,14199.345,8045.794,-1424.854,221.409,-58,-408,-306,,,2018-03-01 20:48:00.957
5.767762,-2056,28,-86,-21,-134,5,14212.231,8022.604,-1427.978,215.965,,,,,,2018-03-01 20:48:00.977
5.78772,-2077,49,-41,-24,-281,5,14227.044,7995.956,-1430.809,210.057,,,,,,2018-03-01 20:48:00.997
5.807801,-2062,58,-78,-22,-221,2,14238.873,7974.465,-1433.822,204.893,,,,,,2018-03-01 20:48:01.017
5.827729,-2077,32,21,-23,-142,5,14243.284,7966.194,-1436.509,201.178,,,,,,2018-03-01 20:48:01.037
5.847718,-2017,53,-146,-23,-81,4,14253.436,7947.536,-1439.868,196.121,-61,-421,-316,,,2018-03-01 20:48:01.057
5.867707,-3064,245,570,-25,-279,5,14258.944,7937.217,-1442.799,191.995,-61,-421,-316,99966,28290,2018-03-01 20:48:01.077
5.887696,-2081,48,-103,-24,-108,0,14270.369,7916.123,-1446.408,186.828,,,,,,2018-03-01 20:48:01.097
5.907685,-2043,39,-65,-22,-106,7,14268.443,7919.164,-1449.093,184.211,,,,,,2018-03-01 20:48:01.117
5.927674,-2030,52,-99,-22,-16,3,14262.168,7930.08,-1451.386,182.507,,,,,,2018-03-01 20:48:01.137
5.947663,-2136,-156,282,-21,63,5,14251.871,7948.251,-1453.261,181.52,-57,-407,-319,,,2018-03-01 20:48:01.157
5.967652,-2087,55,-102,-15,87,5,14242.879,7964.138,-1454.604,180.124,,,,,,2018-03-01 20:48:01.177
5.987641,-2062,57,-30,-17,39,4,14241.477,7975.93,-1399.028,207.434,,,,,,2018-03-01 20:48:01.197
6.007599,-2111,68,-43,291,137,-6,14233.039,7994.103,-1379.441,217.917,,,,,,2018-03-01 20:48:01.217
6.027588,-2109,76,-142,12,56,6,14234.607,7995.393,-1353.618,229.789,,,,,,2018-03-01 20:48:01.237
6.047577,-2033,34,100,241,-50,-7,14243.639,7986.028,-1309.525,250.367,-57,-405,-312,,,2018-03-01 20:48:01.257
6.067566,-2120,53,41,235,-96,-2,14240.871,7991.799,-1303.794,253.57,,,,,,2018-03-01 20:48:01.277
6.087555,-2047,29,-36,-19,-41,13,14249.125,7976.694,-1306.696,250.526,,,,,,2018-03-01 20:48:01.297
6.107544,-2147,79,12,-19,-168,11,14259.404,7958.655,-1304.484,250.922,,,,,,2018-03-01 20:48:01.317
6.127503,-2086,-47,-46,118,-107,24,14262.086,7959.226,-1266.55,273.69,,,,,,2018-03-01 20:48:01.337
6.147522,-2064,39,55,219,-56,26,14248.707,7985.814,-1237.162,325.527,-55,-404,-304,,,2018-03-01 20:48:01.357
6.167511,-2113,-32,36,405,381,282,14217.824,8039.132,-1220.981,412.867,,,,,,2018-03-01 20:48:01.377
6.18747,-2015,84,74,262,321,548,14197.053,8066.149,-1233.888,542.099,,,,,,2018-03-01 20:48:01.396
6.207459,-2087,131,-47,306,145,767,14181.37,8074.001,-1272.426,718.054,,,,,,2018-03-01 20:48:01.416
6.227448,-2132,213,-52,302,56,1120,14169.455,8064.626,-1316.308,943.982,,,,,,2018-03-01 20:48:01.436
6.247437,-1941,203,-47,502,51,1333,14150.134,8055.828,-1369.263,1199.113,-52,-412,-316,,,2018-03-01 20:48:01.456
6.267426,-2081,351,-1,331,44,1509,14112.212,8059.795,-1476.295,1463.275,,,,,,2018-03-01 20:48:01.476
6.287415,-2046,399,67,159,271,1714,14041.738,8088.45,-1637.643,1777.674,,,,,,2018-03-01 20:48:01.496
6.307404,-2162,424,146,-15,381,2258,13953.367,8104.613,-1846.966,2154.746,,,,,,2018-03-01 20:48:01.516
6.327362,-1958,659,69,13,301,2572,13881.494,8073.507,-2033.867,2534.053,,,,,,2018-03-01 20:48:01.536
6.347351,-1902,780,79,262,66,2427,13806.136,8029.159,-2179.196,2934.236,-51,-425,-315,,,2018-03-01 20:48:01.556
6.36734,-1852,993,160,500,192,2473,13704.867,8006.452,-2312.443,3340.865,-51,-425,-315,99966,28290,2018-03-01 20:48:01.576
6.38736,-2026,996,76,471,424,2462,13579.205,7984.012,-2466.599,3769.89,,,,,,2018-03-01 20:48:01.596
6.407318,-1936,811,105,390,279,2865,13429.338,7931.194,-2652.129,4260.361,,,,,,2018-03-01 20:48:01.616
6.427307,-1712,1157,147,410,311,3116,13268.485,7870.335,-2880.184,4705.859,,,,,,2018-03-01 20:48:01.636
6.447297,-1208,1592,213,-16,32,2990,13111.466,7754.458,-3144.849,5148.125,-55,-384,-308,,,2018-03-01 20:48:01.656
6.467286,-1367,1509,32,140,-153,3356,12900.011,7572.124,-3471.643,5712.773,,,,,,2018-03-01 20:48:01.676
6.487275,-1654,1577,-146,158,-367,4186,12627.347,7356.412,-3817.71,6347.742,,,,,,2018-03-01 20:48:01.696
6.507233,-1290,1491,171,359,9,5096,12300.924,7102.817,-4123.869,7047.439,,,,,,2018-03-01 20:48:01.716
6.527222,-1068,1868,106,668,-150,4746,11979.018,6850.849,-4430.943,7640.103,,,,,,2018-03-01 20:48:01.736
6.547211,-825,1894,31,164,-302,4117,11707.786,6569.958,-4722.525,8117.67,-51,-337,-301,,,2018-03-01 20:48:01.756
6.5672,-796,2122,-29,427,-710,3760,11495.02,6276.927,-4964.238,8500.381,,,,,,2018-03-01 20:48:01.776
6.587189,-505,1954,-216,261,-962,3000,11304.439,6006.599,-5183.744,8814.457,,,,,,2018-03-01 20:48:01.796
6.607178,-479,1966,-41,290,-715,2771,11064.209,5784.464,-5358.875,9156.481,,,,,,2018-03-01 20:48:01.816
6.627167,-379,2102,-56,265,-181,2942,10802.291,5575.989,-5559.787,9473.28,,,,,,2018-03-01 20:48:01.836
6.647156,-301,2073,-80,-44,-503,2786,10559.146,5379.999,-5764.366,9734.863,-12,-274,-306,,,2018-03-01 20:48:01.856
6.667145,-47,2198,28,-7,-344,2452,10346.752,5215.02,-5887.376,9976.098,,,,,,2018-03-01 20:48:01.876
6.687134,-57,2113,-101,351,-61,1932,10220.268,5057.651,-5948.506,10149.728,,,,,,2018-03-01 20:48:01.896
6.707123,173,2058,-31,390,-340,1330,10091.336,4893.08,-5999.534,10327.813,,,,,,2018-03-01 20:48:01.916
6.727082,-65,2244,-160,557,-24,1848,9943.738,4746.396,-6029.592,10520.135,,,,,,2018-03-01 20:48:01.936
6.747071,58,2046,-154,336,-51,324,9917.186,4689.098,-6058.709,10554.11,60,-225,-314,,,2018-03-01 20:48:01.956
6.76709,5,1993,-258,-55,-374,474,9879.454,4648.356,-6139.311,10560.94,,,,,,2018-03-01 20:48:01.976
6.787049,-7,2023,-170,-184,-268,302,9856.508,4643.492,-6198.442,10549.975,,,,,,2018-03-01 20:48:01.996
6.807038,59,2025,-65,-185,-122,56,9854.524,4660.273,-6228.898,10526.465,,,,,,2018-03-01 20:48:02.016
6.827027,40,2060,-168,-195,21,-69,9846.438,4700.535,-6239.526,10509.823,,,,,,2018-03-01 20:48:02.036
6.847016,-39,2016,-335,-229,147,-56,9845.192,4745.634,-6240.911,10489.881,120,-209,-326,,,2018-03-01 20:48:02.056
6.867005,7,2090,-161,-63,68,-275,9898.275,4755.543,-6241.226,10435.109,120,-209,-326,99965,28300,2018-03-01 20:48:02.076
6.886994,3,2099,-110,41,-382,-401,9934.496,4755.225,-6267.488,10384.972,,,,,,2018-03-01 20:48:02.096
6.906983,3,2061,-111,-218,-89,-31,9923.316,4774.518,-6301.323,10366.317,,,,,,2018-03-01 20:48:02.116
6.926941,4,2034,-114,-170,-76,7,9915.494,4788.978,-6328.993,10350.262,,,,,,2018-03-01 20:48:02.136
6.94693,-11,2038,-148,-186,-79,3,9907.025,4804.565,-6364.814,10329.161,125,-223,-314,,,2018-03-01 20:48:02.156
6.966919,-41,2050,-159,-228,-145,-9,9901.458,4813.43,-6415.249,10299.127,,,,,,2018-03-01 20:48:02.176
6.986908,9,2028,-43,-214,-290,0,9910.09,4792.599,-6475.761,10262.605,,,,,,2018-03-01 20:48:02.196
7.006897,7,2065,-73,-115,-252,5,9919.094,4778.684,-6490.543,10251.05,,,,,,2018-03-01 20:48:02.216
7.026947,25,2086,-89,113,-92,-8,9936.828,4753.672,-6481.586,10251.172,,,,,,2018-03-01 20:48:02.236
7.046875,-6,2091,-96,144,-90,-15,9947.884,4737.183,-6484.669,10246.131,127,-221,-333,,,2018-03-01 20:48:02.256
7.066864,-30,2060,-99,81,-110,1,9964.185,4704.735,-6555.53,10200.046,,,,,,2018-03-01 20:48:02.276
7.086853,-10,2089,-63,-288,-836,-5,9974.636,4674.454,-6631.691,10154.418,,,,,,2018-03-01 20:48:02.296
7.106812,-4,2062,-98,-139,-229,11,9977.183,4666.745,-6656.875,10138.972,,,,,,2018-03-01 20:48:02.316
7.126801,-5,2049,-96,-8,-97,9,9978.294,4663.664,-6669.017,10131.315,,,,,,2018-03-01 20:48:02.336
7.14679,-18,2022,-118,-21,-71,9,9976.557,4666.502,-6685.582,10120.795,126,-203,-327,,,2018-03-01 20:48:02.356
7.166779,102,1915,-168,-38,-75,-7,9984.002,4656.717,-6689.27,10115.522,,,,,,2018-03-01 20:48:02.376
7.186768,-18,2145,-99,116,-70,-10,9990.833,4646.745,-6694.064,10110.19,,,,,,2018-03-01 20:48:02.396
7.206757,-18,2099,-36,-73,-73,6,9990.034,4647.987,-6709.345,10100.275,,,,,,2018-03-01 20:48:02.416
7.226746,-6,2080,-107,-18,-73,4,9994.758,4640.235,-6715.939,10094.782,,,,,,2018-03-01 20:48:02.436
7.246735,-9,2060,-110,24,-73,12,9997.818,4635.439,-6725.811,10087.379,130,-213,-330,,,2018-03-01 20:48:02.456
7.266693,8,2078,-110,5,-76,4,9997.864,4635.034,-6739.296,10078.516,,,,,,2018-03-01 20:48:02.476
7.286682,12,2054,-102,-55,-71,8,9994.466,4640.195,-6758.11,10066.907,,,,,,2018-03-01 20:48:02.496
7.306702,15,2074,-114,-92,-73,4,9988.309,4649.929,-6781.372,10052.873,,,,,,2018-03-01 20:48:02.516
7.326661,14,2059,-102,-126,-73,0,9986.005,4653.574,-6798.145,10042.141,,,,,,2018-03-01 20:48:02.536
7.34665,19,2077,-103,-40,-71,4,9983.658,4656.622,-6815.066,10031.587,133,-215,-315,,,2018-03-01 20:48:02.556
7.366639,-5,2081,-115,-61,-72,5,9981.589,4660.152,-6832.046,10020.451,133,-215,-315,99964,28290,2018-03-01 20:48:02.576
7.386628,-15,2081,-101,-63,-72,3,9980.016,4663.199,-6848.459,10009.39,,,,,,2018-03-01 20:48:02.596
7.406617,-10,2082,-99,-48,-73,1,9978.416,4665.86,-6865.117,9998.328,,,,,,2018-03-01 20:48:02.616
7.426606,4,2077,-85,-55,-75,2,9974.51,4670.973,-6884.72,9986.351,,,,,,2018-03-01 20:48:02.636
7.446595,-14,2070,-66,-89,-76,6,9970.103,4676.962,-6905.398,9973.664,127,-221,-321,,,2018-03-01 20:48:02.656
7.466553,7,2084,-91,-76,-76,2,9969.932,4677.471,-6919.623,9963.733,,,,,,2018-03-01 20:48:02.676
7.486573,-22,2076,-86,0,-71,0,9973.808,4672.194,-6927.864,9956.599,,,,,,2018-03-01 20:48:02.696
7.506531,6,2072,-106,36,-71,3,9979.27,4664.769,-6934.358,9950.085,,,,,,2018-03-01 20:48:02.716
7.52652,-3,2070,-114,47,-73,1,9983.991,4658.276,-6941.487,9943.418,,,,,,2018-03-01 20:48:02.736
7.546509,-3,2060,-88,27,-72,2,9987.469,4653.665,-6950.267,9935.948,131,-215,-315,,,2018-03-01 20:48:02.756
7.566498,-3,2073,-120,15,-71,0,9990.896,4648.987,-6959.301,9928.368,,,,,,2018-03-01 20:48:02.775
7.586487,39,1931,-132,28,-72,3,9995.563,4642.49,-6966.455,9921.691,,,,,,2018-03-01 20:48:02.795
7.606476,-14,2084,-127,49,-70,4,10000.326,4634.786,-6972.869,9915.985,,,,,,2018-03-01 20:48:02.815
7.626465,2,2058,-108,4,-71,6,10000.428,4634.858,-6986.349,9906.355,,,,,,2018-03-01 20:48:02.835
7.646454,-2,2060,-106,-41,-73,2,9999.404,4636.451,-7000.998,9896.297,136,-227,-320,,,2018-03-01 20:48:02.855
7.666443,-2,2067,-93,-30,-69,3,10000.434,4635.091,-7012.81,9887.527,,,,,,2018-03-01 20:48:02.875
7.686432,-12,2082,-93,-4,-71,3,10002.545,4632.251,-7023.375,9879.219,,,,,,2018-03-01 20:48:02.895
7.706391,5,2070,-112,-1,-73,0,10003.615,4630.788,-7035.536,9870.164,,,,,,2018-03-01 20:48:02.915
7.72638,-8,2074,-112,-27,-72,5,10001.866,4632.93,-7051.315,9859.666,,,,,,2018-03-01 20:48:02.935
7.746369,-12,2066,-117,-58,-71,5,9998.923,4636.483,-7068.183,9848.897,123,-216,-326,,,2018-03-01 20:48:02.955
7.766358,-11,2069,-96,-54,-69,4,9998.258,4637.452,-7082.104,9839.111,,,,,,2018-03-01 20:48:02.975
7.786347,-7,2082,-105,-28,-69,2,9999.321,4636.095,-7093.477,9830.473,,,,,,2018-03-01 20:48:02.995
7.806397,12,2084,-137,4,-68,3,10003.524,4630.372,-7100.692,9823.684,,,,,,2018-03-01 20:48:03.015
7.826325,-9,2074,-109,45,-71,4,10008.121,4623.563,-7107.426,9817.337,,,,,,2018-03-01 20:48:03.035
7.846314,-19,2061,-117,26,-71,3,10010.805,4619.547,-7116.965,9809.577,138,-222,-324,,,2018-03-01 20:48:03.055
7.866272,17,2079,-117,0,-71,3,10011.924,4617.877,-7128.563,9800.796,138,-222,-324,99965,28300,2018-03-01 20:48:03.075
7.886292,-7,2061,-147,-13,-70,2,10013.585,4616.04,-7139.7,9791.853,,,,,,2018-03-01 20:48:03.095
7.90625,0,2054,-136,-9,-71,1,10014.204,4615.343,-7152.072,9782.516,,,,,,2018-03-01 20:48:03.115
7.926239,3,2063,-108,-20,-71,2,10014.173,4615.504,-7165.333,9772.762,,,,,,2018-03-01 20:48:03.135
7.946228,-3,2054,-121,-26,-70,2,10016.357,4612.804,-7175.625,9764.244,133,-217,-331,,,2018-03-01 20:48:03.155
7.966217,5,2114,-98,6,-71,2,10019.986,4607.856,-7184.127,9756.602,,,,,,2018-03-01 20:48:03.175
7.986206,-8,2090,-105,30,-73,1,10025.871,4600.307,-7189.677,9750.028,,,,,,2018-03-01 20:48:03.195
8.006195,-5,2045,-147,45,-72,0,10035.008,4588.619,-7190.881,9745.247,,,,,,2018-03-01 20:48:03.215
8.026184,2,2061,-150,66,-73,1,10039.301,4582.795,-7198.515,9737.927,,,,,,2018-03-01 20:48:03.235
8.046173,13,2048,-131,-10,-75,2,10037.578,4584.571,-7215.079,9726.603,139,-213,-330,,,2018-03-01 20:48:03.255
8.066162,-20,2068,-137,-71,-79,5,10036.869,4584.471,-7232.217,9714.646,,,,,,2018-03-01 20:48:03.275
8.086151,4,2071,-90,-56,-98,3,10040.066,4578.217,-7249.126,9701.68,,,,,,2018-03-01 20:48:03.295
8.10611,16,2075,-128,-8,-124,2,10042.559,4574.263,-7262.273,9691.127,,,,,,2018-03-01 20:48:03.315
8.126099,11,2077,-117,-14,-84,1,10043.392,4572.669,-7275.786,9680.875,,,,,,2018-03-01 20:48:03.335
8.146088,-11,2063,-125,-25,-80,1,10044.026,4571.027,-7289.642,9670.563,137,-218,-321,,,2018-03-01 20:48:03.355
8.166077,15,2068,-103,-18,-82,6,10044.601,4569.372,-7303.444,9660.329,,,,,,2018-03-01 20:48:03.375
8.186066,8,2062,-147,-4,-82,4,10048.043,4564.227,-7313.808,9651.336,,,,,,2018-03-01 20:48:03.395
8.206055,4,2058,-186,6,-84,3,10050.932,4559.698,-7326.453,9640.874,,,,,,2018-03-01 20:48:03.415
8.226014,-5,2081,-119,4,-103,1,10054.205,4552.892,-7344.928,9626.609,,,,,,2018-03-01 20:48:03.435
8.246094,-10,2084,-130,-5,-146,0,10060.162,4543.246,-7358.973,9614.209,138,-215,-318,,,2018-03-01 20:48:03.455
8.266022,0,2076,-155,15,-105,0,10064.981,4536.401,-7369.11,9604.628,,,,,,2018-03-01 20:48:03.475
8.285981,-9,2086,-135,28,-87,0,10070.379,4529.296,-7378.644,9594.998,,,,,,2018-03-01 20:48:03.495
8.30597,-8,2075,-130,17,-98,-3,10080.749,4514.017,-7391.39,9581.489,,,,,,2018-03-01 20:48:03.515
8.325959,-1,2061,-142,55,-210,-11,10099.905,4475.8,-7439.672,9541.794,,,,,,2018-03-01 20:48:03.535
8.345948,-4,2070,-106,-32,-213,5,10092.851,4482.389,-7466.653,9525.075,129,-222,-322,,,2018-03-01 20:48:03.555
8.365937,-6,2060,-134,-110,-89,6,10088.855,4486.718,-7486.628,9511.581,129,-222,-322,99966,28300,2018-03-01 20:48:03.575
8.385926,-19,2084,-148,-83,-80,1,10085.969,4489.701,-7504.588,9499.073,,,,,,2018-03-01 20:48:03.595
8.405915,-18,2079,-120,-62,-79,2,10082.995,4492.534,-7522.063,9487.061,,,,,,2018-03-01 20:48:03.615
8.425873,-9,2065,-106,-68,-76,5,10083.421,4491.37,-7534.707,9477.121,,,,,,2018-03-01 20:48:03.635
8.445862,-9,2063,-148,4,-74,3,10086.903,4487.106,-7543.487,9468.448,126,-215,-329,,,2018-03-01 20:48:03.655
8.465851,-7,2076,-117,-11,-75,-2,10078.743,4497.171,-7567.737,9452.998,,,,,,2018-03-01 20:48:03.675
8.48584,-1,2079,-126,-194,-74,2,10068.835,4508.241,-7593.6,9437.531,,,,,,2018-03-01 20:48:03.695
8.505829,-2,2052,-137,-92,-73,7,10069.837,4506.531,-7605.023,9428.076,,,,,,2018-03-01 20:48:03.715
8.525818,2,2083,-139,32,-71,1,10075.969,4498.714,-7609.723,9421.463,,,,,,2018-03-01 20:48:03.735
8.545807,-17,2072,-109,29,-71,1,10078.062,4495.49,-7619.452,9412.896,137,-221,-328,,,2018-03-01 20:48:03.755
8.565796,-9,2089,-126,-1,-72,6,10083.433,4488.463,-7625.179,9405.857,,,,,,2018-03-01 20:48:03.775
8.585785,-10,2078,-127,44,-74,0,10088.775,4481.675,-7631.241,9398.446,,,,,,2018-03-01 20:48:03.795
8.605744,14,2053,-142,28,-73,1,10095.693,4473.013,-7635.102,9392.006,,,,,,2018-03-01 20:48:03.815
8.625733,-8,2211,-85,57,-73,1,10105.638,4460.346,-7634.677,9387.68,,,,,,2018-03-01 20:48:03.835
8.645722,7,2059,-164,111,-72,1,10122.762,4438.192,-7624.681,9387.854,135,-221,-319,,,2018-03-01 20:48:03.855
8.665711,-11,2067,-150,184,-72,1,10130.967,4428.201,-7626.777,9382.017,,,,,,2018-03-01 20:48:03.875
8.6857,-24,2090,-135,13,-73,0,10132.397,4425.855,-7637.72,9372.672,,,,,,2018-03-01 20:48:03.895
8.705689,-45,2098,-116,-4,-73,3,10141.997,4413.368,-7637.953,9367.987,,,,,,2018-03-01 20:48:03.915
8.725678,-23,2086,-149,147,-74,3,10157.347,4394.424,-7630.834,9366.063,,,,,,2018-03-01 20:48:03.935
8.745667,-15,2069,-160,65,-74,0,10163.009,4387.619,-7636.476,9358.51,142,-216,-323,,,2018-03-01 20:48:03.955
8.765656,1,2056,-146,49,-73,1,10170.566,4377.221,-7638.908,9353.182,,,,,,2018-03-01 20:48:03.975
8.785645,-13,2046,-170,80,-75,5,10179.982,4364.965,-7639.428,9348.241,,,,,,2018-03-01 20:48:03.995
8.805603,-2,2079,-185,71,-75,1,10183.015,4360.233,-7649.528,9338.882,,,,,,2018-03-01 20:48:04.015
8.825592,-1,2095,-196,-96,-81,-2,10179.699,4363.026,-7667.516,9326.434,,,,,,2018-03-01 20:48:04.035
8.845551,-14,2047,-158,-99,-80,3,10176.093,4366.341,-7685.982,9313.608,131,-217,-327,,,2018-03-01 20:48:04.055
8.86554,-1,2072,-156,-63,-81,2,10175.392,4365.974,-7700.368,9302.657,131,-217,-327,99965,28300,2018-03-01 20:48:04.075
8.885529,2,2084,-170,-33,-79,4,10173.65,4366.707,-7716.694,9290.683,,,,,,2018-03-01 20:48:04.095
8.905518,-12,2059,-189,-66,-83,3,10167.325,4372.719,-7740.357,9275.081,,,,,,2018-03-01 20:48:04.115
8.925507,20,2071,-141,-140,-101,3,10180.257,4345.453,-7770.999,9248.048,,,,,,2018-03-01 20:48:04.135
8.945496,-1,2087,-154,76,-354,-10,10182.181,4339.465,-7789.789,9232.921,125,-223,-330,,,2018-03-01 20:48:04.154
8.965485,8,2080,-175,-17,-110,4,10189.13,4329.249,-7796.966,9223.989,,,,,,2018-03-01 20:48:04.174
8.985443,-2,2062,-173,54,-88,3,10194.518,4321.473,-7803.762,9215.932,,,,,,2018-03-01 20:48:04.194
9.005463,4,2060,-198,-1,-80,3,10194.342,4321.006,-7817.384,9204.794,,,,,,2018-03-01 20:48:04.214
9.025422,-13,2077,-161,-57,-76,0,10188.341,4327.556,-7837.933,9190.875,,,,,,2018-03-01 20:48:04.234
9.045411,-9,2067,-154,-136,-72,1,10179.878,4336.763,-7861.424,9175.838,123,-221,-330,,,2018-03-01 20:48:04.254
9.0654,6,2060,-137,-88,-73,2,10179.524,4336.423,-7874.319,9165.328,,,,,,2018-03-01 20:48:04.274
9.085389,-9,2062,-168,-6,-74,1,10178.062,4337.57,-7888.734,9154.007,,,,,,2018-03-01 20:48:04.294
9.105378,-5,2080,-138,-108,-74,0,10162.545,4354.413,-7921.092,9135.288,,,,,,2018-03-01 20:48:04.314
9.145356,13,2082,-148,-232,-75,4,10151.967,4364.765,-7947.465,9119.189,,,,,,2018-03-01 20:48:04.354
9.145722,6,2060,-163,-87,-82,6,10156.304,4358.232,-7956.438,9109.655,,,,,,2018-03-01 20:48:04.355
9.165314,-18,2061,-154,46,-85,1,10161.441,4350.881,-7963.478,9101.285,138,-224,-322,,,2018-03-01 20:48:04.374
9.185334,-1,2081,-165,27,-80,5,10167.219,4342.563,-7970.257,9092.867,,,,,,2018-03-01 20:48:04.394
9.205323,5,2055,-159,43,-81,3,10174.042,4333.186,-7975.024,9085.526,,,,,,2018-03-01 20:48:04.414
9.225312,6,2062,-179,60,-81,2,10181.613,4323.687,-7978.53,9078.49,,,,,,2018-03-01 20:48:04.434
9.24527,-12,2066,-176,23,-77,0,10182.795,4320.779,-7989.862,9068.576,138,-210,-327,,,2018-03-01 20:48:04.454
9.265259,21,2074,-151,-14,-82,4,10193.786,4304.743,-7994.855,9059.45,,,,,,2018-03-01 20:48:04.474
9.285248,5,2056,-186,127,-155,2,10207.672,4286.058,-7996.907,9050.859,,,,,,2018-03-01 20:48:04.494
9.305237,-8,2066,-185,70,-89,-4,10209.321,4284.061,-8008.046,9040.088,,,,,,2018-03-01 20:48:04.514
9.325287,-8,2085,-167,-66,-76,-3,10202.513,4291.136,-8029.273,9025.58,,,,,,2018-03-01 20:48:04.534
9.345215,-14,2064,-161,-109,-75,2,10202.132,4290.482,-8042.154,9014.847,,,,,,2018-03-01 20:48:04.554
9.365204,1,2060,-169,24,-75,2,10209.322,4281.728,-8045.332,9008.029,150,-207,-336,99968,28300,2018-03-01 20:48:04.574
9.385193,-3,2068,-194,30,-72,0,10213.929,4275.922,-8051.628,8999.936,,,,,,2018-03-01 20:48:04.594
9.405152,9,2064,-190,12,-71,1,10217.724,4270.887,-8059.086,8991.34,,,,,,2018-03-01 20:48:04.614
9.425171,-15,2071,-187,35,-73,1,10223.517,4263.942,-8063.992,8983.65,,,,,,2018-03-01 20:48:04.634
9.44513,-2,2056,-166,23,-72,0,10221.987,4265.263,-8078.01,8972.162,,,,,,2018-03-01 20:48:04.654
9.46518,-9,2076,-160,-77,-72,0,10216.597,4270.068,-8096.603,8959.247,160,-212,-338,,,2018-03-01 20:48:04.674
9.485108,10,2058,-194,-69,-74,3,10219.301,4265.879,-8104.944,8950.613,,,,,,2018-03-01 20:48:04.694
9.505097,-7,2068,-148,25,-72,3,10221.974,4262.317,-8113.567,8941.44,,,,,,2018-03-01 20:48:04.714
9.525086,1,2084,-152,-22,-72,0,10219.722,4263.439,-8128.058,8930.312,,,,,,2018-03-01 20:48:04.734
9.545075,-12,2073,-154,-52,-72,6,10227.602,4253.005,-8129.668,8924.799,,,,,,2018-03-01 20:48:04.754
9.565033,-7,2078,-198,125,-71,6,10244.812,4232.903,-8119.764,8923.633,163,-216,-337,,,2018-03-01 20:48:04.774
9.585053,9,2059,-218,178,-72,2,10257.156,4218.19,-8116.19,8919.669,,,,,,2018-03-01 20:48:04.794
9.605011,5,2056,-171,45,-73,1,10254.707,4219.83,-8131.018,8908.197,,,,,,2018-03-01 20:48:04.814
9.625,1,2069,-218,-96,-72,4,10253.68,4218.946,-8143.996,8897.938,,,,,,2018-03-01 20:48:04.834
9.644989,8,2068,-204,-18,-74,6,10254.578,4216.456,-8154.574,8888.39,,,,,,2018-03-01 20:48:04.854
9.664978,9,2095,-161,-22,-73,3,10246.986,4223.983,-8176.048,8873.832,188,-229,-327,,,2018-03-01 20:48:04.874
9.684967,-6,2067,-193,-161,-73,0,10240.33,4230.013,-8196.384,8859.873,,,,,,2018-03-01 20:48:04.894
9.704956,5,2067,-174,-86,-74,3,10235.567,4234.546,-8214.425,8846.493,,,,,,2018-03-01 20:48:04.914
9.724945,-5,2085,-160,-98,-75,-3,10230.344,4239.058,-8232.821,8833.263,,,,,,2018-03-01 20:48:04.934
9.744934,-8,2083,-158,-70,-74,5,10233.64,4233.373,-8240.101,8825.379,,,,,,2018-03-01 20:48:04.954
9.764893,-5,2069,-199,76,-72,8,10251.834,4211.732,-8228.427,8825.509,215,-255,-315,,,2018-03-01 20:48:04.974
9.784882,23,2077,-203,224,-70,6,10271.571,4188.822,-8215.048,8825.929,,,,,,2018-03-01 20:48:04.994
9.804901,-11,2061,-222,151,-70,3,10276.928,4181.573,-8220.01,8818.507,,,,,,2018-03-01 20:48:05.014
9.824891,3,2074,-224,-50,-76,4,10270.531,4186.806,-8239.791,8805.005,,,,,,2018-03-01 20:48:05.034
9.84488,6,2087,-197,-113,-73,4,10265.648,4190.453,-8257.661,8792.214,,,,,,2018-03-01 20:48:05.054
9.864869,11,2060,-203,-27,-74,5,10268.603,4186.115,-8265.427,8783.529,259,-285,-280,99965,28310,2018-03-01 20:48:05.074
9.884858,-16,2061,-215,16,-71,3,10269.292,4183.919,-8276.162,8773.656,,,,,,2018-03-01 20:48:05.094
9.904847,-13,2081,-208,-46,-73,3,10263.46,4188.912,-8294.785,8760.501,,,,,,2018-03-01 20:48:05.114
9.924836,-10,2077,-170,-132,-72,2,10256.043,4195.338,-8315.593,8746.374,,,,,,2018-03-01 20:48:05.134
9.944794,-8,2050,-176,-94,-74,4,10257.153,4192.826,-8325.723,8736.635,,,,,,2018-03-01 20:48:05.154
9.964783,-15,2067,-179,11,-71,2,10259.163,4189.97,-8334.87,8726.918,325,-337,-235,,,2018-03-01 20:48:05.174
9.984772,17,2081,-181,-30,-72,1,10258.459,4189.735,-8347.496,8715.783,,,,,,2018-03-01 20:48:05.194
10.004761,-2,2063,-190,-16,-73,2,10261.449,4185.096,-8355.098,8707.205,,,,,,2018-03-01 20:48:05.214
10.02475,1,2081,-208,1,-71,4,10264.03,4180.552,-8363.029,8698.726,,,,,,2018-03-01 20:48:05.234
10.044739,6,2071,-203,-1,-71,6,10264.229,4179.012,-8373.921,8688.748,,,,,,2018-03-01 20:48:05.254
10.064728,-17,2055,-193,-39,-72,2,10261.316,4180.76,-8388.857,8676.932,351,-363,-175,,,2018-03-01 20:48:05.274
10.084687,0,2077,-184,-62,-72,3,10261.016,4179.759,-8400.719,8666.285,,,,,,2018-03-01 20:48:05.294
10.104706,-2,2075,-179,-24,-72,1,10261.697,4177.43,-8411.241,8656.39,,,,,,2018-03-01 20:48:05.314
10.124665,-6,2077,-196,-20,-73,5,10262.394,4175.057,-8421.514,8646.715,,,,,,2018-03-01 20:48:05.334
10.144654,-13,2068,-188,-17,-71,4,10265.229,4171.047,-8429.341,8637.654,,,,,,2018-03-01 20:48:05.354
10.164673,4,2069,-227,-3,-72,0,10263.905,4171.541,-8442.482,8626.147,308,-372,-117,,,2018-03-01 20:48:05.374
10.184632,-1,2081,-194,-75,-73,0,10258.276,4175.795,-8460.68,8612.946,,,,,,2018-03-01 20:48:05.394
10.204621,-8,2064,-169,-98,-73,6,10251.736,4180.652,-8479.842,8599.521,,,,,,2018-03-01 20:48:05.414
10.22464,-1,2075,-196,-100,-73,3,10248.226,4182.558,-8495.474,8587.341,,,,,,2018-03-01 20:48:05.434
10.244599,19,2075,-168,-38,-74,5,10250.001,4179.266,-8504.638,8577.748,,,,,,2018-03-01 20:48:05.454
10.264588,-16,2061,-161,4,-73,2,10251.511,4176.521,-8514.184,8567.805,283,-409,-38,,,2018-03-01 20:48:05.474
10.284577,7,2072,-161,-32,-74,0,10247.162,4179.786,-8530.857,8554.821,,,,,,2018-03-01 20:48:05.494
10.304535,-7,2052,-189,-108,-75,1,10239.616,4185.971,-8551.483,8540.227,,,,,,2018-03-01 20:48:05.514
10.324524,11,2064,-155,-104,-75,3,10235.608,4188.111,-8567.856,8527.563,,,,,,2018-03-01 20:48:05.534
10.344513,-17,2065,-155,-53,-76,3,10234.971,4187.086,-8580.292,8516.319,,,,,,2018-03-01 20:48:05.554
10.364502,-11,2073,-150,-22,-76,2,10237.44,4182.803,-8588.753,8506.923,255,-470,65,99963,28300,2018-03-01 20:48:05.574
10.384491,6,2076,-196,1,-74,5,10240.713,4177.755,-8595.916,8498.224,,,,,,2018-03-01 20:48:05.593
10.40448,-11,2067,-179,2,-72,4,10241.956,4174.998,-8605.951,8487.919,,,,,,2018-03-01 20:48:05.613
10.424469,-13,2068,-147,-27,-75,0,10242.735,4172.595,-8616.454,8477.498,,,,,,2018-03-01 20:48:05.633
10.444458,-4,2064,-181,-12,-75,5,10245.586,4167.765,-8624.439,8468.304,,,,,,2018-03-01 20:48:05.653
10.464417,2,2055,-175,7,-75,5,10248.096,4163.63,-8632.879,8458.697,247,-639,287,,,2018-03-01 20:48:05.673
10.484436,-6,2065,-178,-14,-73,3,10249.085,4160.652,-8643.149,8448.469,,,,,,2018-03-01 20:48:05.693
10.504425,-2,2070,-157,-31,-78,4,10246.768,4161.095,-8657.495,8436.364,,,,,,2018-03-01 20:48:05.713
10.524414,6,2096,-181,-75,-78,3,10244.048,4161.636,-8672.287,8424.199,,,,,,2018-03-01 20:48:05.733
10.544373,-3,2081,-131,-36,-78,4,10245.447,4157.96,-8682.495,8413.791,,,,,,2018-03-01 20:48:05.753
10.564362,-4,2066,-176,-4,-80,2,10250.25,4150.861,-8689.468,8404.243,273,-1210,983,,,2018-03-01 20:48:05.773
10.584351,1,2074,-189,14,-84,2,10253.462,4146.131,-8697.736,8394.1,,,,,,2018-03-01 20:48:05.793
10.60434,8,2058,-156,-14,-77,0,10250.657,4147.463,-8712.527,8381.52,,,,,,2018-03-01 20:48:05.813
10.624329,-7,2068,-166,-105,-77,0,10242.964,4152.373,-8733.483,8366.671,,,,,,2018-03-01 20:48:05.833
10.644318,39,2058,-125,-122,-84,6,10256.921,4126.796,-8750.716,8344.191,,,,,,2018-03-01 20:48:05.853
10.664276,29,2071,-158,191,-384,-6,10269.459,4105.747,-8762.349,8326.927,388,-2202,1882,,,2018-03-01 20:48:05.873
10.684357,11,2071,-179,36,-161,1,10274.874,4096.604,-8772.474,8314.079,,,,,,2018-03-01 20:48:05.893
10.704255,1,2055,-161,-19,-84,-2,10275.679,4094.31,-8783.127,8302.96,,,,,,2018-03-01 20:48:05.913
10.724244,-3,2071,-166,-32,-75,0,10275.639,4092.438,-8794.11,8292.3,,,,,,2018-03-01 20:48:05.933
10.744233,2,2078,-169,-14,-73,4,10280.477,4085.683,-8799.263,8284.164,,,,,,2018-03-01 20:48:05.953
10.764222,0,2071,-170,36,-74,3,10285.636,4078.397,-8804.051,8276.261,915,-4786,3838,,,2018-03-01 20:48:05.973
10.784211,6,2083,-183,22,-75,5,10287.863,4074.013,-8812.732,8266.407,,,,,,2018-03-01 20:48:05.993
10.804169,-2,2065,-196,-25,-77,3,10286.338,4073.547,-8825.646,8254.747,,,,,,2018-03-01 20:48:06.013
10.824158,-13,2073,-167,-62,-76,3,10282.573,4075.181,-8840.847,8242.356,,,,,,2018-03-01 20:48:06.033
10.844147,-2,2098,-155,-68,-72,5,10282.329,4073.279,-8851.793,8231.846,,,,,,2018-03-01 20:48:06.053
10.864136,-13,2045,-174,-13,-73,3,10284.165,4069.792,-8860.373,8222.04,1174,-8710,5595,99965,28310,2018-03-01 20:48:06.073
10.884125,-12,2073,-218,-16,-73,1,10284.233,4068.095,-8871.092,8211.23,,,,,,2018-03-01 20:48:06.093
10.904084,-5,2072,-165,-26,-73,1,10285.009,4065.395,-8880.674,8201.232,,,,,,2018-03-01 20:48:06.113
10.924073,13,2065,-179,-28,-72,5,10285.384,4062.951,-8890.785,8191.012,,,,,,2018-03-01 20:48:06.133
10.944062,18,2078,-171,-38,-73,4,10286.262,4060.449,-8900.671,8180.406,,,,,,2018-03-01 20:48:06.153
10.964051,6,2062,-186,-61,-73,4,10288.205,4056.912,-8909.376,8170.236,944,-7999,1976,,,2018-03-01 20:48:06.173
10.98404,15,2076,-161,7,-73,0,10290.914,4052.426,-8916.916,8160.82,,,,,,2018-03-01 20:48:06.193
11.004029,-2,2084,-163,-18,-73,3,10290.606,4050.9,-8927.743,8150.121,,,,,,2018-03-01 20:48:06.213
11.024018,3,2079,-164,-43,-72,3,10289.378,4049.915,-8939.695,8139.052,,,,,,2018-03-01 20:48:06.233
11.044007,-29,2083,-217,-34,-74,4,10289.804,4047.624,-8950.042,8128.274,,,,,,2018-03-01 20:48:06.253
11.063996,-5,2061,-159,-27,-76,1,10289.928,4045.547,-8960.634,8117.473,1320,-7536,-1436,,,2018-03-01 20:48:06.273
11.083985,-5,2086,-179,-29,-75,3,10292.005,4041.434,-8968.897,8107.759,,,,,,2018-03-01 20:48:06.293
11.103943,-12,2070,-188,5,-74,5,10296.307,4035.419,-8974.879,8098.669,,,,,,2018-03-01 20:48:06.313
11.123932,-7,2071,-165,10,-76,3,10297.982,4031.882,-8983.759,8088.447,,,,,,2018-03-01 20:48:06.333
11.143921,-3,2062,-179,-33,-75,3,10297.578,4030.428,-8995.071,8077.107,,,,,,2018-03-01 20:48:06.353
11.16391,-9,2062,-178,-39,-75,1,10299.096,4027.118,-9003.866,8067.018,1073,-7743,-2401,,,2018-03-01 20:48:06.373
11.183899,1,2069,-204,4,-72,4,10304.469,4020.117,-9008.268,8058.729,,,,,,2018-03-01 20:48:06.393
11.203888,10,2072,-199,28,-73,4,10309.638,4013.481,-9012.997,8050.133,,,,,,2018-03-01 20:48:06.413
11.223877,-9,2073,-203,8,-73,2,10311.644,4009.617,-9021.206,8040.289,,,,,,2018-03-01 20:48:06.433
11.243836,-4,2078,-170,-19,-74,-2,10311.555,4008.067,-9031.613,8029.484,,,,,,2018-03-01 20:48:06.453
11.263825,-1,2052,-190,-34,-70,1,10313.295,4004.422,-9040.067,8019.549,987,-7219,-2350,,,2018-03-01 20:48:06.473
11.283814,-7,2165,-194,-8,-75,2,10314.697,4000.954,-9048.879,8009.532,,,,,,2018-03-01 20:48:06.493
11.303803,-31,2126,-177,-20,-74,4,10370.509,3927.697,-9046.034,7976.868,,,,,,2018-03-01 20:48:06.513
11.323792,68,2055,-197,239,-309,3,10384.252,3904.909,-9056.203,7958.619,,,,,,2018-03-01 20:48:06.533
11.343781,-18,2070,-206,-32,-124,0,10381.739,3905.063,-9070.765,7945.227,,,,,,2018-03-01 20:48:06.553
11.36377,-8,2070,-181,-62,-74,-3,10381.038,3903.767,-9082.06,7933.868,980,-7193,-2366,99963,28310,2018-03-01 20:48:06.573
11.383759,3,2073,-184,-37,-75,1,10386.375,3896.658,-9085.999,7925.864,,,,,,2018-03-01 20:48:06.593
11.403748,3,2078,-222,96,-71,7,10411.027,3871.777,-9067.557,7926.834,,,,,,2018-03-01 20:48:06.613
11.423737,-4,2041,-233,281,-74,11,10434.664,3847.312,-9050.509,7927.149,,,,,,2018-03-01 20:48:06.633
11.443695,-4,2057,-252,153,-75,8,10439.825,3840.687,-9054.704,7918.772,,,,,,2018-03-01 20:48:06.653
; 11 stopping logging: shutdown: switched off,,,,,,,,,,,,,,,,