;Title, http://www.gcdataconcepts.com, HAM-IMU+alt, MPU9250 BMP280
;Version, 1379, Build date, Jan 12 2018,  SN:CCDC50029F4C138
;Start_time, 2018-06-16, 09:03:47.967
;Temperature, -999.00, deg C,  Vbat, 3476, mv
;MPU SR, 200,Hz,  Accel sens, 2048,counts/g, Gyro sens, 16,counts/dps,  Mag SR, 10,Hz,  Mag sens, 1666,counts/mT
;BMP280 SI, 0.500,s 
;Deadband, 0, counts
;DeadbandTimeout, 5,sec
;Time, Ax, Ay, Az, Gx, Gy, Gz, Qw, Qx, Qy, Qz, Mx, My, Mz, P, T
0.010315,258,2054,65,-2,-1,0,-9235.152,-5661.491,10309.237,-6694.367
0.013093,244,2038,51,-2,-2,0,-9235.128,-5661.551,10309.176,-6694.443,198,-277,-320
0.033051,258,2033,71,0,0,0,-9235.268,-5661.600,10309.096,-6694.331
0.053071,268,2054,56,0,0,0,-9235.101,-5661.724,10309.232,-6694.247
0.073060,252,2057,53,-2,-1,-2,-9235.022,-5661.529,10309.407,-6694.252
0.093018,258,2058,62,-1,-1,0,-9234.991,-5661.444,10309.572,-6694.113
0.113038,259,2051,51,-2,-2,0,-9234.991,-5661.465,10309.645,-6693.983,198,-277,-320
0.132996,261,2030,70,-2,-2,1,-9234.966,-5661.506,10309.649,-6693.975
0.152985,253,2062,58,-3,-1,2,-9234.994,-5661.524,10309.677,-6693.879,198,-277,-320,100067,28660
0.172974,246,2035,66,-1,-1,-2,-9234.868,-5661.510,10309.772,-6693.919
0.192963,273,2045,75,-1,-1,0,-9234.942,-5661.406,10309.716,-6693.990
0.212952,226,2051,67,-1,-2,0,-9234.832,-5661.343,10309.797,-6694.071,204,-280,-321
0.232941,265,2040,86,1,0,0,-9234.842,-5661.501,10309.775,-6693.957
0.252930,249,2057,65,-1,-1,-2,-9234.861,-5661.660,10309.714,-6693.891
0.272919,268,2043,66,0,0,-2,-9234.749,-5661.836,10309.707,-6693.907
0.292878,258,2061,58,-2,-1,-1,-9234.771,-5661.759,10309.664,-6694.009
0.312897,246,2059,59,-1,-2,1,-9234.581,-5661.881,10309.663,-6694.167,206,-280,-323
0.332856,265,2051,88,-1,-1,1,-9234.380,-5661.941,10309.730,-6694.291
0.352845,266,2052,47,-2,-1,2,-9234.417,-5661.882,10309.710,-6694.322
0.372834,258,2048,78,2,0,0,-9234.269,-5661.906,10309.661,-6694.582
0.392823,251,2074,67,0,0,0,-9234.147,-5661.981,10309.724,-6694.589
0.412812,247,2041,81,-1,-1,0,-9234.152,-5662.075,10309.773,-6694.427,197,-276,-321
0.432801,236,2054,52,-1,-1,-1,-9234.022,-5662.283,10309.651,-6694.619
0.452790,261,2038,55,-1,-1,-1,-9233.948,-5662.443,10309.571,-6694.707
0.472779,245,2035,56,-3,-1,1,-9233.985,-5662.462,10309.515,-6694.727
0.492768,244,2056,57,-1,-1,-1,-9233.956,-5662.466,10309.487,-6694.806
0.512726,242,2043,76,-1,-2,1,-9233.912,-5662.620,10309.411,-6694.855,209,-285,-321
0.532715,253,2056,62,-1,-1,1,-9233.852,-5662.817,10309.390,-6694.803
0.552704,250,2059,62,-2,-1,-2,-9233.764,-5662.736,10309.545,-6694.755
0.572693,260,2031,68,-2,-1,1,-9233.682,-5662.817,10309.476,-6694.904
0.592713,259,2042,38,0,1,0,-9233.646,-5662.824,10309.359,-6695.129
0.612671,251,2037,57,0,1,0,-9233.596,-5662.789,10309.282,-6695.345,202,-276,-321
0.632660,241,2053,76,0,1,1,-9233.548,-5662.904,10309.242,-6695.377
0.652649,248,2045,58,-2,-1,0,-9233.518,-5662.967,10309.154,-6695.500,202,-276,-321,100067,28660
0.672638,265,2038,75,1,1,-1,-9233.548,-5662.782,10309.166,-6695.597
0.692627,249,2045,86,-2,-1,1,-9233.615,-5662.839,10309.026,-6695.671
0.712586,264,2054,62,1,0,0,-9233.627,-5662.625,10309.090,-6695.737,200,-286,-315
0.732575,253,2050,48,-1,-2,1,-9233.479,-5662.711,10309.206,-6695.690
0.752564,267,2050,84,-3,-1,-2,-9233.372,-5662.932,10309.221,-6695.628
0.772553,247,2054,67,-2,-1,1,-9233.431,-5662.890,10309.212,-6695.596
0.792542,251,2064,51,0,-1,0,-9233.316,-5663.044,10309.298,-6695.492
0.812531,249,2046,68,-1,0,1,-9233.437,-5663.195,10309.238,-6695.289,194,-273,-312
0.832520,244,2044,41,-2,-1,-2,-9233.405,-5663.223,10309.216,-6695.345
0.852509,257,2033,87,-1,-1,-1,-9233.342,-5663.418,10309.158,-6695.355
0.872498,252,2035,52,-2,-1,-1,-9233.303,-5663.327,10309.176,-6695.458
0.892487,256,2044,63,0,0,1,-9233.318,-5663.406,10309.108,-6695.475
0.912446,252,2044,65,-1,0,0,-9233.228,-5663.301,10309.166,-6695.598,207,-279,-318
0.932435,255,2050,74,-1,-1,1,-9233.046,-5663.305,10309.212,-6695.775
0.952424,252,2035,65,-1,-1,1,-9232.833,-5663.409,10309.295,-6695.854
0.972413,255,2045,43,-2,-1,1,-9232.786,-5663.280,10309.409,-6695.851
0.992402,253,2051,50,-3,-1,0,-9232.848,-5662.785,10309.736,-6695.682
1.012452,262,2050,77,-3,-5,0,-9232.697,-5662.730,10309.904,-6695.679,196,-282,-318
1.032410,258,2032,72,-2,-1,-1,-9232.833,-5662.648,10309.822,-6695.686
1.052369,250,2042,57,-1,-1,-1,-9232.679,-5662.866,10309.855,-6695.662
1.072327,251,2042,62,-1,-1,0,-9232.671,-5662.797,10309.813,-6695.798
1.092347,259,2057,95,0,0,1,-9232.770,-5662.895,10309.739,-6695.691
1.112336,255,2043,63,-2,-4,1,-9232.907,-5662.798,10309.695,-6695.652,203,-274,-327
1.132325,251,2054,46,0,-1,-1,-9232.947,-5662.890,10309.551,-6695.742
1.152283,260,2055,50,-1,-1,-1,-9232.855,-5662.992,10309.548,-6695.786,203,-274,-327,100064,28660
1.172272,257,2047,80,-1,0,1,-9232.856,-5662.918,10309.619,-6695.738
1.192261,245,2049,62,-2,-2,0,-9232.656,-5662.789,10309.802,-6695.842
1.212250,243,2058,59,-2,-1,2,-9232.552,-5662.811,10309.848,-6695.896,207,-282,-322
1.232239,259,2052,63,0,1,1,-9232.653,-5662.820,10309.767,-6695.873
1.252228,258,2070,86,-1,-1,1,-9232.608,-5663.128,10309.599,-6695.933
1.272187,253,2055,78,-1,-1,-2,-9232.470,-5663.049,10309.734,-6695.983
1.292206,249,2048,77,-2,-1,1,-9232.460,-5663.109,10309.693,-6696.008
1.312195,258,2054,67,-2,-1,-1,-9232.421,-5663.205,10309.686,-6695.992,209,-271,-316
1.332184,237,2050,56,-1,0,-1,-9232.385,-5663.223,10309.640,-6696.097
1.352143,245,2039,82,1,0,0,-9232.359,-5663.223,10309.711,-6696.023
1.372132,245,2030,52,-2,-2,1,-9232.210,-5663.256,10309.829,-6696.021
1.392121,267,2068,43,-2,-2,0,-9232.211,-5663.274,10309.839,-6695.988
1.412110,250,2052,107,-2,-1,1,-9232.101,-5663.166,10309.916,-6696.112,206,-278,-328
1.432099,242,2054,75,0,0,0,-9231.952,-5663.236,10310.002,-6696.127
1.452088,252,2039,74,-1,-1,1,-9231.942,-5663.289,10310.026,-6696.058
1.472077,256,2056,71,-2,-1,0,-9231.885,-5663.299,10310.068,-6696.063
1.492035,252,2039,66,1,0,1,-9231.962,-5663.255,10309.980,-6696.130
1.512055,252,2050,58,-2,-2,-1,-9231.877,-5663.119,10310.162,-6696.082,200,-284,-313
1.532013,247,2040,79,-2,-3,2,-9231.708,-5663.113,10310.224,-6696.224
1.552002,251,2053,59,-4,-1,1,-9231.832,-5663.285,10310.071,-6696.144
1.571991,250,2054,63,0,0,-1,-9231.868,-5663.413,10309.989,-6696.113
1.591980,258,2056,68,-1,0,0,-9231.759,-5663.349,10310.069,-6696.193
1.611969,258,2057,58,-1,-1,0,-9231.636,-5663.104,10310.207,-6696.358,204,-280,-314
1.631958,263,2047,81,-2,-3,2,-9231.647,-5662.890,10310.268,-6696.428
1.651948,263,2052,57,-1,-1,1,-9231.685,-5662.940,10310.408,-6696.118,204,-280,-314,100065,28660
1.671937,247,2045,48,-1,-2,-1,-9231.574,-5662.899,10310.459,-6696.229
1.691895,260,2050,53,0,0,1,-9231.745,-5662.913,10310.353,-6696.144
1.711884,251,2059,67,-2,-2,-2,-9231.642,-5662.874,10310.394,-6696.255,216,-283,-323
1.731904,248,2058,71,-1,0,1,-9231.497,-5662.985,10310.441,-6696.289
1.751862,250,2052,62,-1,-1,1,-9231.507,-5663.024,10310.414,-6696.286
1.771851,256,2059,47,-2,-1,-1,-9231.459,-5662.889,10310.599,-6696.180
1.791840,247,2053,70,-2,-2,0,-9231.470,-5662.779,10310.632,-6696.208
1.811829,254,2055,63,0,0,0,-9231.574,-5662.752,10310.588,-6696.155,196,-291,-313
1.831818,243,2062,72,0,0,-2,-9231.484,-5662.837,10310.560,-6696.249
1.851807,258,2047,89,-1,-1,1,-9231.541,-5662.776,10310.487,-6696.335
1.871796,265,2043,71,0,-1,0,-9231.452,-5662.926,10310.525,-6696.272
1.891785,243,2059,77,-2,-1,0,-9231.525,-5662.886,10310.375,-6696.435
1.911774,250,2059,59,-1,-1,0,-9231.499,-5662.791,10310.380,-6696.546,205,-282,-311
1.931733,256,2038,62,-2,-1,1,-9231.389,-5662.800,10310.425,-6696.620
1.951722,248,2046,42,-2,-1,1,-9231.400,-5662.633,10310.486,-6696.652
1.971711,258,2041,66,-1,-1,0,-9231.371,-5662.402,10310.516,-6696.841
1.991700,247,2050,61,-1,-1,2,-9231.175,-5662.321,10310.672,-6696.938
2.011689,255,2040,48,-2,-2,2,-9231.112,-5662.441,10310.652,-6696.956,210,-284,-308
2.031678,252,2034,67,-3,-2,-1,-9230.976,-5662.438,10310.727,-6697.030
2.051667,249,2043,70,-1,-2,0,-9230.995,-5662.566,10310.635,-6697.038
2.071656,250,2046,53,0,-1,-3,-9231.001,-5662.518,10310.637,-6697.066
2.091645,258,2058,88,-1,-1,0,-9231.158,-5662.595,10310.482,-6697.024
2.111634,254,2057,76,0,1,-2,-9231.096,-5662.464,10310.642,-6696.973,205,-286,-318
2.131592,248,2060,67,-3,-1,-1,-9231.051,-5662.572,10310.571,-6697.054
2.151581,272,2032,86,0,0,-1,-9231.060,-5662.612,10310.610,-6696.947,205,-286,-318,100064,28660
2.171570,244,2032,59,-1,-2,-1,-9231.052,-5662.614,10310.570,-6697.017
2.191559,268,2050,41,0,0,0,-9230.987,-5662.706,10310.549,-6697.063
2.211548,253,2052,42,-1,-1,0,-9230.926,-5662.672,10310.514,-6697.229,206,-292,-326
2.231598,255,2045,76,-1,-1,1,-9230.833,-5662.676,10310.475,-6697.413
2.251526,251,2038,41,0,2,1,-9230.778,-5662.670,10310.437,-6697.553
2.271515,261,2045,37,-1,-1,2,-9230.791,-5662.659,10310.407,-6697.591
2.291504,248,2045,81,-1,1,0,-9230.796,-5662.615,10310.376,-6697.669
2.311493,250,2047,79,-1,-1,0,-9230.528,-5662.549,10310.556,-6697.816,193,-291,-322
2.331452,250,2045,81,-3,-2,1,-9230.426,-5662.607,10310.668,-6697.735
2.351441,261,2055,48,-1,1,0,-9230.415,-5662.678,10310.560,-6697.857
2.371430,269,2064,75,-1,-1,2,-9230.468,-5662.638,10310.556,-6697.824
2.391419,236,2042,49,0,0,0,-9230.654,-5662.583,10310.536,-6697.646
2.411408,255,2040,60,1,-1,-2,-9230.662,-5662.614,10310.577,-6697.546,205,-277,-315
2.431397,250,2038,77,-1,-1,1,-9230.578,-5662.714,10310.661,-6697.446
2.451386,254,2035,72,-4,-1,1,-9230.491,-5662.639,10310.816,-6697.391
2.471375,256,2052,65,-2,-1,1,-9230.421,-5662.581,10310.824,-6697.524
2.491364,255,2038,77,0,0,0,-9230.294,-5662.704,10310.765,-6697.687
2.511353,246,2035,82,-1,-1,0,-9230.115,-5662.743,10310.810,-6697.831,199,-283,-321
2.531342,259,2060,57,0,0,0,-9230.291,-5662.602,10310.692,-6697.889
2.551331,256,2042,56,0,-1,-1,-9230.294,-5662.513,10310.701,-6697.945
2.571320,252,2049,62,1,0,1,-9230.245,-5662.540,10310.656,-6698.060
2.591279,251,2062,84,-1,0,1,-9230.065,-5662.605,10310.574,-6698.380
2.611268,257,2062,65,-1,0,1,-9229.888,-5662.728,10310.617,-6698.453,209,-283,-314
2.631257,244,2054,50,-2,-1,0,-9229.775,-5662.730,10310.697,-6698.484
2.651246,253,2033,48,-1,-1,1,-9229.878,-5662.519,10310.676,-6698.554,209,-283,-314,100063,28660
2.671235,259,2069,87,0,0,-1,-9229.871,-5662.344,10310.667,-6698.724
2.691224,252,2039,71,-2,-1,0,-9229.721,-5662.426,10310.697,-6698.816
2.711213,264,2056,35,-1,0,-2,-9229.833,-5662.557,10310.601,-6698.699,198,-289,-320
2.731171,270,2044,65,-2,-1,-1,-9230.038,-5662.562,10310.496,-6698.574
2.751191,254,2046,62,-2,-2,-4,-9230.044,-5662.404,10310.471,-6698.738
2.771149,255,2055,78,-1,-1,-1,-9230.123,-5662.420,10310.356,-6698.792
2.791138,247,2047,85,-3,-1,-1,-9230.126,-5662.526,10310.353,-6698.703
2.811127,255,2058,86,-1,-2,-3,-9230.148,-5662.383,10310.415,-6698.696,202,-283,-312
2.831116,251,2037,58,-2,-1,-1,-9230.089,-5662.407,10310.395,-6698.789
2.851136,270,2043,66,-1,-1,0,-9230.106,-5662.555,10310.223,-6698.907
2.871094,255,2031,66,2,2,-2,-9230.062,-5662.561,10310.258,-6698.907
2.891083,257,2050,72,0,0,-2,-9230.121,-5662.636,10310.098,-6699.008
2.911072,260,2047,49,1,0,-2,-9230.145,-5662.496,10310.197,-6698.942,209,-276,-316
2.931061,248,2045,75,-2,-2,0,-9230.117,-5662.484,10310.211,-6698.969
2.951020,260,2046,63,1,1,-1,-9230.229,-5662.397,10310.200,-6698.907
2.971009,268,2041,81,-2,-3,-2,-9230.293,-5662.426,10310.259,-6698.703
2.990998,247,2059,55,-3,-2,-1,-9230.276,-5662.534,10310.211,-6698.707
3.010987,263,2045,72,-1,-1,-1,-9230.250,-5662.575,10310.159,-6698.787,211,-285,-319
3.030976,250,2051,57,-2,-1,1,-9230.271,-5662.453,10310.220,-6698.770
3.050965,254,2050,78,-1,-1,-2,-9230.250,-5662.524,10310.201,-6698.767
3.070954,254,2038,95,-2,0,1,-9230.183,-5662.639,10310.193,-6698.775
3.091004,243,2035,43,-3,-1,-2,-9230.169,-5662.600,10310.389,-6698.525
3.110901,258,2057,81,-2,-2,0,-9230.269,-5662.733,10310.230,-6698.520,206,-290,-321
3.130890,246,2028,61,1,0,-1,-9230.262,-5662.721,10310.259,-6698.494
3.150879,254,2049,87,-2,-2,-1,-9230.437,-5662.629,10310.251,-6698.344,206,-290,-321,100063,28660
3.170868,249,2045,69,-1,-3,-1,-9230.465,-5662.800,10310.234,-6698.187
3.190857,246,2040,78,-1,-2,-1,-9230.443,-5662.902,10310.318,-6698.003
3.210846,262,2040,78,-3,-2,-1,-9230.470,-5663.069,10310.163,-6698.063,204,-280,-328
3.230835,237,2037,42,-1,-1,-1,-9230.425,-5663.111,10310.194,-6698.041
3.250824,256,2047,79,-1,-1,0,-9230.468,-5663.232,10310.056,-6698.092
3.270813,238,2041,86,-1,-1,-1,-9230.442,-5663.157,10310.072,-6698.166
3.290802,249,2047,82,-1,-1,0,-9230.435,-5663.211,10310.073,-6698.128
3.310792,248,2044,29,-2,-1,-1,-9230.342,-5663.231,10310.090,-6698.215,204,-280,-328
3.330781,262,2049,46,-2,-1,-1,-9230.463,-5663.320,10309.937,-6698.207
3.350739,258,2066,71,0,0,-1,-9230.510,-5663.378,10309.859,-6698.214
3.370728,243,2044,67,0,0,-1,-9230.559,-5663.362,10309.840,-6698.187
3.390748,245,2050,65,0,0,0,-9230.570,-5663.397,10309.796,-6698.211
3.410706,254,2051,58,0,0,-2,-9230.513,-5663.514,10309.850,-6698.108,200,-279,-318
3.430695,253,2049,71,-2,-1,-1,-9230.638,-5663.623,10309.795,-6697.928
3.450745,270,2037,96,-2,-1,-3,-9230.556,-5663.792,10309.837,-6697.834
3.470673,253,2051,56,0,0,-2,-9230.639,-5663.876,10309.764,-6697.760
3.490662,234,2037,55,-1,-1,-1,-9230.714,-5663.832,10309.784,-6697.664
3.510651,247,2044,58,-2,-3,1,-9230.823,-5663.841,10309.676,-6697.673,206,-280,-307
3.530640,245,2042,58,-1,-1,-1,-9230.908,-5663.856,10309.621,-6697.628
3.550629,260,2053,53,-1,-1,-2,-9231.000,-5663.904,10309.469,-6697.694
3.570588,277,2048,65,0,0,0,-9231.125,-5663.808,10309.437,-6697.652
3.590577,260,2032,82,-1,-2,-1,-9231.166,-5663.790,10309.426,-6697.627
3.610566,258,2045,79,-1,-1,-2,-9231.314,-5663.914,10309.258,-6697.579,204,-276,-316
3.630555,248,2043,65,-1,-1,0,-9231.353,-5663.985,10309.188,-6697.572
3.650544,244,2040,82,0,0,-2,-9231.369,-5663.952,10309.360,-6697.312,204,-276,-316,100064,28660
3.670533,259,2053,67,-2,-3,-1,-9231.317,-5664.147,10309.416,-6697.132
3.690522,266,2047,70,-1,-1,-2,-9231.338,-5664.097,10309.454,-6697.088
3.710511,263,2059,55,-1,-2,-1,-9231.348,-5664.296,10309.245,-6697.228,200,-277,-331
3.730469,245,2063,68,0,0,0,-9231.366,-5664.402,10309.190,-6697.199
3.750458,272,2039,80,-2,-1,0,-9231.288,-5664.535,10309.194,-6697.186
3.770478,255,2051,35,-1,-1,-2,-9231.102,-5664.524,10309.321,-6697.256
3.790436,252,2043,61,-3,-1,-1,-9231.167,-5664.650,10309.254,-6697.165
3.810425,241,2053,96,-1,-1,-2,-9231.191,-5664.739,10309.161,-6697.199,206,-283,-316
3.830414,240,2030,33,-1,-1,-2,-9231.251,-5664.735,10309.164,-6697.114
3.850403,241,2052,57,-1,-3,-2,-9231.265,-5664.782,10309.245,-6696.930
3.870392,262,2055,39,-3,-1,0,-9231.358,-5664.829,10309.150,-6696.909
3.890381,270,2054,74,-2,-2,-2,-9231.541,-5664.771,10309.033,-6696.886
3.910370,245,2051,41,-2,-1,0,-9231.567,-5664.695,10309.001,-6696.964,198,-279,-322
3.930359,246,2037,55,-1,-1,-1,-9231.734,-5664.685,10308.929,-6696.853
3.950348,258,2047,50,-2,-2,-2,-9231.746,-5664.805,10308.817,-6696.908
3.970307,258,2059,71,-1,0,-2,-9231.662,-5664.797,10308.846,-6696.985
3.990296,257,2045,105,-2,-1,-2,-9231.750,-5664.893,10308.792,-6696.866
4.010285,248,2062,35,-1,-1,0,-9231.749,-5664.843,10308.760,-6696.958,207,-279,-320
4.030274,244,2056,85,0,0,0,-9231.744,-5664.648,10308.876,-6696.951
4.050263,264,2051,89,0,0,0,-9231.758,-5664.575,10308.989,-6696.820
4.070252,261,2058,52,-1,-3,-2,-9231.692,-5664.530,10309.200,-6696.624
4.090302,253,2033,78,-4,-1,-2,-9231.624,-5664.701,10309.287,-6696.441
4.110230,263,2052,53,-2,-3,-2,-9231.629,-5664.818,10309.190,-6696.484
4.130219,262,2035,58,-1,-1,0,-9231.638,-5664.912,10309.112,-6696.511,202,-280,-319
4.150208,247,2051,67,-1,-1,-2,-9231.491,-5665.136,10309.211,-6696.372,202,-280,-319,100064,28650
4.170167,253,2059,70,-2,-1,0,-9231.460,-5665.156,10309.100,-6696.568
4.190186,255,2047,85,-1,-1,-1,-9231.337,-5665.037,10309.107,-6696.828
4.210145,268,2032,50,-1,-1,2,-9231.367,-5665.129,10309.014,-6696.852
4.230134,248,2051,65,-1,-1,-1,-9231.460,-5664.904,10309.002,-6696.933,198,-294,-320
4.250123,243,2046,79,-1,-1,1,-9231.493,-5665.048,10308.909,-6696.908
4.270112,260,2040,74,-1,-1,-3,-9231.683,-5665.024,10308.800,-6696.835
4.290101,245,2045,52,1,0,-1,-9231.678,-5665.152,10308.741,-6696.824
4.310090,269,2038,78,-1,-1,-1,-9231.681,-5665.010,10308.882,-6696.724
4.330079,244,2043,60,-2,-2,-1,-9231.769,-5665.009,10308.831,-6696.681,197,-285,-326
4.350037,271,2034,75,-2,-1,-2,-9231.770,-5665.026,10308.922,-6696.526
4.370026,260,2055,67,-1,-3,0,-9231.791,-5665.057,10308.926,-6696.464
4.390015,257,2048,90,0,0,-2,-9231.884,-5664.999,10308.930,-6696.378
4.410004,258,2041,66,-2,-1,-2,-9231.698,-5665.013,10309.122,-6696.326
4.429993,252,2035,65,-3,-1,-1,-9231.554,-5665.140,10309.214,-6696.279,205,-277,-320
4.449982,274,2052,89,-4,-1,-2,-9231.648,-5665.078,10309.218,-6696.195
4.469971,250,2047,75,-1,-2,-1,-9231.612,-5665.177,10309.215,-6696.164
4.489960,259,2038,41,-3,-2,-1,-9231.577,-5665.204,10309.306,-6696.050
4.509949,223,2047,59,-1,-1,-1,-9231.610,-5665.151,10309.261,-6696.118
4.529908,261,2063,66,-1,-1,-1,-9231.825,-5665.282,10309.034,-6696.061,203,-277,-318
4.549927,262,2054,57,1,0,-2,-9231.780,-5665.311,10309.064,-6696.052
4.569916,244,2045,65,-1,-1,0,-9231.881,-5665.272,10308.990,-6696.058
4.589875,251,2044,80,-1,-3,-1,-9232.090,-5665.256,10308.792,-6696.091
4.609864,241,2072,59,-1,-1,-2,-9232.035,-5665.423,10308.741,-6696.103
4.629853,238,2047,42,-2,-1,-2,-9232.162,-5665.521,10308.654,-6695.979,204,-280,-312
4.649842,256,2053,71,-2,-2,0,-9232.267,-5665.271,10308.635,-6696.076,204,-280,-312,100063,28660
4.669892,251,2038,85,-1,-1,1,-9232.180,-5665.260,10308.714,-6696.083
4.689820,263,2064,57,-1,-2,-1,-9231.952,-5665.252,10308.845,-6696.202
4.709809,249,2048,72,-3,-1,-1,-9232.108,-5665.170,10308.820,-6696.094
4.729798,262,2047,71,-2,-2,-1,-9232.268,-5665.144,10308.792,-6695.939,212,-279,-327
4.749787,246,2053,47,-1,-2,-2,-9232.333,-5665.163,10308.757,-6695.888
4.769776,251,2049,71,-2,-1,-1,-9232.421,-5665.118,10308.707,-6695.882
4.789734,256,2062,59,0,0,0,-9232.499,-5665.164,10308.692,-6695.759
4.809723,244,2046,53,-2,-1,0,-9232.515,-5665.184,10308.534,-6695.962
4.829712,269,2057,79,-1,-1,-1,-9232.503,-5665.278,10308.565,-6695.851,209,-285,-319
4.849701,262,2029,115,-2,-1,-2,-9232.519,-5665.274,10308.606,-6695.769
4.869690,272,2058,94,-1,-1,-1,-9232.434,-5665.422,10308.589,-6695.789
4.889679,243,2041,69,-1,-1,-1,-9232.332,-5665.432,10308.709,-6695.735
4.909668,276,2062,60,-2,-2,-1,-9232.386,-5665.436,10308.654,-6695.741
4.929657,247,2054,91,0,0,0,-9232.373,-5665.385,10308.685,-6695.755,203,-277,-327
4.949646,263,2041,89,-3,-2,1,-9232.324,-5665.333,10308.819,-6695.661
4.969636,251,2058,88,-1,-1,-1,-9232.258,-5665.436,10308.782,-6695.722
4.989594,263,2042,87,-1,-1,0,-9232.253,-5665.493,10308.627,-6695.919
5.009583,262,2047,56,1,1,-1,-9232.191,-5665.476,10308.675,-6695.944
5.029572,259,2054,80,-2,-2,-1,-9232.254,-5665.601,10308.714,-6695.692,212,-279,-313
5.049561,252,2059,72,-3,-2,-1,-9232.179,-5665.472,10308.830,-6695.726
5.069550,247,2059,76,-1,0,-1,-9232.275,-5665.618,10308.778,-6695.551
5.089539,270,2051,63,1,0,-2,-9232.165,-5665.730,10308.813,-6695.554
5.109528,254,2050,74,-2,0,1,-9232.243,-5665.887,10308.607,-6695.630
5.129517,258,2055,72,-1,-1,-2,-9232.249,-5665.884,10308.558,-6695.700,212,-279,-318
5.149506,264,2046,42,-1,-1,-1,-9232.374,-5665.923,10308.372,-6695.781,212,-279,-318,100062,28660
5.169495,251,2056,60,1,1,-2,-9232.278,-5665.928,10308.380,-6695.896
5.189454,253,2020,82,-1,-1,0,-9232.226,-5665.967,10308.487,-6695.771
5.209443,256,2051,55,-3,-2,0,-9232.363,-5666.092,10308.300,-6695.764
5.229432,259,2044,68,-2,-1,-1,-9232.545,-5666.049,10308.183,-6695.728,219,-286,-329
5.249421,261,2052,71,-1,-1,-1,-9232.567,-5666.060,10308.182,-6695.691
5.269410,242,2050,65,-2,-1,0,-9232.577,-5666.115,10308.161,-6695.663
5.289399,247,2051,51,-1,-1,-3,-9232.660,-5666.223,10308.117,-6695.525
5.309388,256,2052,62,-1,-1,-1,-9232.720,-5666.206,10308.115,-6695.459
5.329377,241,2043,70,0,0,1,-9232.781,-5666.159,10308.113,-6695.417,206,-276,-330
5.349366,258,2043,71,-1,-1,-2,-9232.810,-5666.130,10308.079,-6695.455
5.369355,234,2047,77,-2,-2,-1,-9232.828,-5666.336,10307.964,-6695.433
5.389313,254,2040,71,-1,-1,0,-9232.848,-5666.431,10307.942,-6695.359
5.409333,254,2039,72,-1,-1,0,-9232.832,-5666.524,10307.951,-6695.289
5.429291,244,2053,61,-2,-1,-1,-9232.801,-5666.470,10308.031,-6695.255,207,-282,-324
5.449280,260,2045,58,-1,-1,-1,-9232.848,-5666.394,10308.069,-6695.195
5.469269,251,2057,84,-2,-1,-3,-9232.984,-5666.495,10307.972,-6695.072
5.489258,238,2023,70,-1,-1,0,-9233.049,-5666.536,10308.001,-6694.902
5.509247,259,2044,48,-2,-2,-2,-9233.098,-5666.566,10308.045,-6694.741
5.529236,251,2051,60,-1,-2,-2,-9233.169,-5666.680,10308.005,-6694.608,197,-278,-323
5.549225,266,2054,59,-2,0,-2,-9233.106,-5666.782,10308.025,-6694.578
5.569214,249,2049,48,-1,-1,-2,-9233.060,-5666.792,10307.963,-6694.730
5.589173,255,2037,69,0,0,-2,-9233.061,-5666.791,10307.959,-6694.734
5.609162,263,2052,58,-1,-1,-2,-9233.092,-5666.908,10307.831,-6694.791
5.629151,244,2055,104,-2,-1,-1,-9233.113,-5666.985,10307.708,-6694.885,209,-280,-328
5.649140,255,2048,55,-1,-1,0,-9233.215,-5666.932,10307.643,-6694.889,209,-280,-328,100063,28660
5.669129,264,2048,86,1,0,-1,-9233.345,-5666.974,10307.514,-6694.871
5.689118,265,2050,57,-2,-1,-1,-9233.225,-5667.087,10307.589,-6694.828
5.709107,237,2036,79,-2,-1,-2,-9233.232,-5667.085,10307.539,-6694.896
5.729096,263,2065,74,-2,-1,1,-9233.234,-5667.200,10307.498,-6694.860,199,-283,-326
5.749085,252,2042,57,-3,-2,-1,-9233.282,-5667.211,10307.448,-6694.861
5.769074,261,2055,72,-1,-1,-3,-9233.276,-5667.039,10307.435,-6695.035
5.789063,253,2061,68,-2,-1,1,-9233.252,-5666.892,10307.539,-6695.031
5.809052,251,2045,53,-2,-1,-1,-9233.347,-5667.021,10307.449,-6694.930
5.829041,251,2033,61,-2,-2,-2,-9233.465,-5666.841,10307.422,-6694.962,203,-277,-322
5.849000,251,2048,61,0,0,-1,-9233.439,-5666.803,10307.435,-6695.008
5.868989,245,2032,63,-1,-1,-1,-9233.418,-5666.753,10307.476,-6695.019
5.889039,262,2055,51,-2,-1,-1,-9233.606,-5666.721,10307.428,-6694.859
5.908967,256,2055,86,0,-2,-1,-9233.650,-5666.448,10307.438,-6695.014
5.928956,249,2055,58,-1,-1,1,-9233.673,-5666.386,10307.503,-6694.935,209,-276,-314
5.948945,254,2040,63,-2,-1,0,-9233.795,-5666.285,10307.414,-6694.990
5.968934,247,2042,39,0,1,0,-9233.835,-5666.266,10307.299,-6695.127
5.988923,260,2051,59,-2,-1,-1,-9233.786,-5666.416,10307.306,-6695.057
6.008912,246,2042,71,-2,-1,-2,-9233.868,-5666.224,10307.349,-6695.042
6.028901,256,2037,67,-1,-3,-1,-9233.833,-5666.324,10307.409,-6694.911,212,-279,-320
6.048859,274,2046,80,-2,-1,-1,-9233.838,-5666.345,10307.496,-6694.753
6.068848,257,2049,88,-3,-1,-1,-9233.816,-5666.528,10307.452,-6694.695
6.088837,246,2027,75,0,0,-2,-9233.919,-5666.486,10307.423,-6694.633
6.108826,251,2059,61,-1,-1,-2,-9233.819,-5666.501,10307.452,-6694.715
6.128815,264,2050,67,0,0,-1,-9233.819,-5666.422,10307.534,-6694.655,197,-273,-312
6.148804,230,2047,60,-2,-1,-1,-9233.915,-5666.406,10307.404,-6694.737,197,-273,-312,100069,28660
6.168793,264,2051,70,0,0,-2,-9234.049,-5666.311,10307.432,-6694.590
6.188752,266,2047,43,-2,-2,-1,-9234.167,-5666.384,10307.347,-6694.496
6.208771,251,2055,79,-2,-1,-2,-9234.242,-5666.309,10307.459,-6694.284
6.228730,245,2057,77,-2,-3,-1,-9234.273,-5666.388,10307.466,-6694.162,207,-284,-320
6.248719,244,2048,78,-2,-1,-2,-9234.498,-5666.502,10307.356,-6693.926
6.268708,260,2062,79,1,0,-3,-9234.530,-5666.692,10307.327,-6693.765
6.288697,255,2058,69,0,0,-2,-9234.481,-5666.752,10307.300,-6693.824
6.308686,247,2047,62,-1,-1,-1,-9234.475,-5666.788,10307.197,-6693.960
6.328675,265,2048,58,-2,-1,0,-9234.511,-5666.689,10307.152,-6694.063,205,-279,-322
6.348664,263,2040,86,-1,-1,-1,-9234.495,-5666.680,10307.186,-6694.041
6.368653,247,2046,58,-3,-1,-1,-9234.479,-5666.554,10307.158,-6694.212
6.388611,249,2058,51,1,0,0,-9234.613,-5666.546,10307.089,-6694.141
6.408600,260,2035,59,-2,-1,-2,-9234.848,-5666.448,10306.997,-6694.040
6.428620,245,2051,47,-1,-1,-1,-9234.912,-5666.612,10306.907,-6693.953,206,-271,-312
6.448578,244,2040,84,-3,-1,-2,-9234.925,-5666.455,10306.911,-6694.061
6.468567,259,2040,101,-1,-2,0,-9234.959,-5666.511,10306.976,-6693.866
6.488556,270,2048,67,-1,-1,-2,-9234.963,-5666.511,10307.008,-6693.812
6.508545,254,2043,62,-1,-3,-2,-9235.048,-5666.518,10306.864,-6693.912
6.528534,245,2049,78,0,0,-2,-9235.209,-5666.403,10306.794,-6693.894,204,-285,-321
6.548523,255,2050,71,0,0,-1,-9235.238,-5666.444,10306.828,-6693.768
6.568512,269,2056,77,-2,-2,-2,-9235.253,-5666.666,10306.686,-6693.777
6.588501,250,2041,62,-1,1,-4,-9235.277,-5666.704,10306.698,-6693.693
6.608490,258,2037,41,-1,-3,-1,-9235.349,-5666.612,10306.654,-6693.738
6.628479,246,2036,62,-2,-1,-1,-9235.497,-5666.460,10306.634,-6693.694,211,-280,-309
6.648469,261,2040,41,-1,-2,-1,-9235.426,-5666.411,10306.623,-6693.850,211,-280,-309,100068,28660
6.668427,262,2061,55,0,1,1,-9235.459,-5666.560,10306.518,-6693.841
6.688416,259,2053,57,-2,-2,-2,-9235.409,-5666.340,10306.547,-6694.052
6.708405,257,2047,66,0,0,0,-9235.692,-5666.279,10306.442,-6693.874
6.728394,263,2053,48,-2,-2,-2,-9235.715,-5666.272,10306.512,-6693.740,204,-278,-316
6.748383,259,2035,74,-3,-1,-2,-9235.766,-5666.110,10306.650,-6693.596
6.768372,244,2052,62,-1,-4,-3,-9235.838,-5666.050,10306.541,-6693.714
6.788361,261,2051,77,0,0,-1,-9235.988,-5665.976,10306.458,-6693.698
6.808350,246,2045,70,-2,-2,-1,-9236.139,-5665.923,10306.344,-6693.709
6.828309,246,2051,65,0,0,-3,-9236.193,-5666.051,10306.261,-6693.656,192,-276,-326
6.848298,250,2040,89,-2,-1,0,-9236.192,-5666.087,10306.223,-6693.685
6.868287,246,2050,74,-2,0,-2,-9236.136,-5666.143,10306.303,-6693.591
6.888276,265,2048,68,-2,-3,-1,-9236.127,-5666.176,10306.216,-6693.710
6.908265,257,2058,65,0,0,0,-9236.112,-5666.298,10306.286,-6693.518
6.928254,248,2057,57,-3,-1,-2,-9236.137,-5666.152,10306.312,-6693.568,213,-283,-316
6.948243,257,2046,68,0,0,-1,-9236.211,-5666.077,10306.294,-6693.557
6.968232,251,2038,94,-1,-2,-2,-9236.175,-5666.015,10306.378,-6693.530
6.988221,247,2043,61,-3,-1,-1,-9236.090,-5666.119,10306.421,-6693.494
7.008210,245,2029,52,-2,-1,-1,-9236.110,-5666.191,10306.277,-6693.626
7.028168,256,2037,65,1,0,0,-9236.353,-5666.155,10306.144,-6693.525,192,-288,-314
7.048157,261,2049,69,0,0,-3,-9236.453,-5666.007,10306.164,-6693.482
7.068146,270,2045,48,-2,-1,-2,-9236.457,-5666.051,10306.086,-6693.561
7.088135,254,2055,69,1,0,-1,-9236.279,-5665.885,10306.299,-6693.619
7.108216,244,2044,57,-1,-1,1,-9236.427,-5665.816,10306.221,-6693.592
7.128113,256,2051,67,0,0,0,-9236.417,-5665.823,10306.226,-6693.593,210,-286,-324
7.148102,254,2061,52,-2,-1,-1,-9236.468,-5665.778,10306.205,-6693.594,210,-286,-324,100063,28660
7.168091,256,2047,58,-1,-1,0,-9236.384,-5665.693,10306.263,-6693.690
7.188080,240,2040,46,0,0,0,-9236.451,-5665.705,10306.266,-6693.585
7.208039,274,2045,71,0,-1,-1,-9236.505,-5665.877,10306.244,-6693.398
7.228028,249,2049,62,-2,0,-1,-9236.449,-5665.854,10306.321,-6693.377,202,-280,-328
7.248017,252,2049,68,-2,-1,-1,-9236.188,-5665.941,10306.445,-6693.472
7.268006,260,2040,77,-2,-1,0,-9236.169,-5666.057,10306.402,-6693.466
7.287995,254,2047,60,1,0,-2,-9236.151,-5666.290,10306.285,-6693.474
7.307984,255,2056,45,0,0,-1,-9236.027,-5666.254,10306.420,-6693.468
7.327973,240,2044,47,-3,-1,-2,-9235.997,-5666.129,10306.490,-6693.507,198,-282,-322
7.347962,241,2043,88,-3,-1,-1,-9236.163,-5666.249,10306.338,-6693.410
7.367920,244,2054,69,0,1,-1,-9236.272,-5666.196,10306.363,-6693.266
7.387940,259,2050,71,-1,-1,-2,-9236.343,-5666.301,10306.323,-6693.142
7.407898,256,2062,46,-2,-1,-2,-9236.310,-5666.478,10306.286,-6693.094
7.427918,259,2051,56,-1,-1,-3,-9236.500,-5666.406,10306.262,-6692.929,210,-282,-320
7.447907,253,2034,50,-1,-1,-2,-9236.452,-5666.483,10306.424,-6692.680
7.467896,251,2059,51,-3,-1,0,-9236.434,-5666.531,10306.470,-6692.594
7.487854,252,2067,76,1,0,-1,-9236.511,-5666.703,10306.369,-6692.498
7.507844,266,2052,49,0,2,-1,-9236.510,-5666.693,10306.428,-6692.417
7.527833,258,2038,53,-1,-3,-1,-9236.542,-5666.708,10306.291,-6692.570,197,-276,-319
7.547822,252,2045,55,0,0,-1,-9236.502,-5666.619,10306.407,-6692.523
7.567811,234,2039,60,-3,-3,-1,-9236.598,-5666.624,10306.308,-6692.538
7.587800,249,2046,70,0,0,-1,-9236.702,-5666.608,10306.241,-6692.511
7.607758,273,2046,61,1,0,-1,-9236.769,-5666.656,10306.142,-6692.532
7.627778,262,2044,52,-1,0,0,-9236.640,-5666.576,10306.311,-6692.516,194,-278,-316
7.647767,252,2048,57,-3,-1,-1,-9236.611,-5666.514,10306.392,-6692.484,194,-278,-316,100067,28660
7.667725,237,2044,95,-2,-2,0,-9236.600,-5666.420,10306.422,-6692.533
7.687714,251,2050,61,-2,-1,-1,-9236.646,-5666.319,10306.541,-6692.372
7.707703,261,2056,43,0,-2,0,-9236.769,-5666.373,10306.513,-6692.200
7.727692,259,2035,72,-3,-1,-1,-9236.682,-5666.308,10306.531,-6692.346,217,-274,-324
7.747681,260,2046,56,-2,-1,1,-9236.648,-5666.493,10306.522,-6692.251
7.767670,249,2047,78,-2,-1,-2,-9236.737,-5666.245,10306.555,-6692.288
7.787659,259,2051,74,-1,-2,-1,-9236.599,-5666.329,10306.553,-6692.409
7.807618,261,2034,62,-1,-1,0,-9236.594,-5666.405,10306.487,-6692.454
7.827637,256,2041,77,-1,-1,-2,-9236.683,-5666.350,10306.438,-6692.453,206,-276,-321
7.847626,252,2043,82,0,0,-1,-9236.563,-5666.466,10306.512,-6692.406
7.867615,251,2033,53,0,1,-1,-9236.477,-5666.474,10306.551,-6692.458
7.887574,260,2045,72,-1,-1,-1,-9236.546,-5666.520,10306.413,-6692.537
7.907563,237,2040,45,1,1,-3,-9236.635,-5666.598,10306.363,-6692.425
7.927552,253,2053,39,-1,-1,-2,-9236.856,-5666.705,10306.217,-6692.253,210,-282,-324
7.947541,257,2027,66,-1,-1,-2,-9236.900,-5666.691,10306.156,-6692.299
7.967530,257,2035,79,-2,-1,-2,-9236.923,-5666.768,10306.032,-6692.393
7.987519,249,2052,74,-1,-1,0,-9236.917,-5666.743,10306.026,-6692.431
8.007508,263,2047,78,-1,-2,-2,-9236.924,-5666.758,10306.111,-6692.279
8.027466,252,2029,56,-1,-2,-1,-9237.065,-5666.612,10306.138,-6692.166,203,-282,-318
8.047486,250,2050,62,-2,-3,0,-9237.158,-5666.600,10306.178,-6691.985
8.067444,249,2061,62,-2,-1,-2,-9237.225,-5666.572,10306.167,-6691.933
8.087433,235,2039,61,0,0,-1,-9237.365,-5666.662,10305.971,-6691.966
8.107422,256,2047,59,0,1,-3,-9237.324,-5666.702,10305.935,-6692.046
8.127411,251,2045,85,0,0,-1,-9237.461,-5666.608,10305.733,-6692.247,209,-278,-316
8.147400,259,2030,42,0,0,0,-9237.454,-5666.533,10305.769,-6692.264,209,-278,-316,100064,28660
8.167389,248,2035,71,0,0,-1,-9237.586,-5666.478,10305.669,-6692.283
8.187378,256,2043,57,-2,-1,0,-9237.376,-5666.450,10305.849,-6692.318
8.207337,264,2057,71,-3,-1,-1,-9237.377,-5666.377,10305.802,-6692.451
8.227356,256,2047,60,-1,-1,0,-9237.356,-5666.317,10305.875,-6692.418,207,-286,-320
8.247345,237,2042,65,0,0,-1,-9237.435,-5666.384,10305.770,-6692.415
8.267304,253,2038,63,0,0,-2,-9237.407,-5666.626,10305.691,-6692.371
8.287323,261,2044,71,-3,-1,-1,-9237.272,-5666.631,10305.800,-6692.385
8.307282,249,2059,68,-2,-1,1,-9237.295,-5666.697,10305.741,-6692.388
8.327332,268,2069,87,-1,-1,0,-9237.169,-5666.716,10305.818,-6692.429,200,-274,-320
8.347260,257,2055,49,-1,-1,0,-9237.023,-5666.591,10306.003,-6692.449
8.367249,263,2041,53,-1,-1,-1,-9236.911,-5666.586,10306.093,-6692.469
8.387238,262,2036,76,-1,-1,0,-9236.935,-5666.599,10306.058,-6692.479
8.407227,258,2061,62,-1,-1,-3,-9236.853,-5666.603,10306.096,-6692.531
8.427186,273,2049,75,-2,-1,0,-9237.065,-5666.719,10305.930,-6692.397,207,-277,-322
8.447205,251,2043,57,-2,-1,-1,-9237.112,-5666.790,10305.978,-6692.197
8.467194,250,2043,62,-2,-2,1,-9237.107,-5666.674,10306.004,-6692.262
8.487153,253,2042,85,-1,-1,-1,-9237.169,-5666.555,10306.069,-6692.177
8.507142,263,2047,59,-1,-1,1,-9237.064,-5666.717,10306.098,-6692.140
8.527131,262,2042,52,-2,-1,-2,-9237.020,-5666.699,10306.123,-6692.177,207,-277,-327
8.547120,265,2035,52,-1,-1,-2,-9236.982,-5666.814,10306.186,-6692.036
8.567109,252,2033,74,-2,-1,-2,-9236.988,-5666.873,10306.107,-6692.099
8.587098,237,2045,76,-1,-1,-1,-9236.928,-5666.950,10306.127,-6692.086
8.607087,247,2043,66,-1,-2,-1,-9236.834,-5667.011,10306.168,-6692.101
8.627045,261,2046,56,-2,-1,0,-9236.912,-5667.065,10306.124,-6692.015,204,-273,-321
8.647034,253,2046,60,-2,-3,0,-9236.911,-5667.179,10306.019,-6692.082,204,-273,-321,100067,28660
8.667023,259,2051,60,-1,-1,1,-9236.950,-5667.023,10306.072,-6692.078
8.687012,253,2055,75,-1,-2,-1,-9236.999,-5666.998,10306.114,-6691.966
8.707001,254,2056,86,-2,-1,-1,-9236.973,-5667.029,10306.167,-6691.896
8.726990,238,2042,62,-2,-2,-1,-9236.949,-5667.014,10306.240,-6691.828,207,-289,-320
8.746979,254,2061,60,-2,-1,-2,-9236.920,-5667.319,10306.006,-6691.971
8.766968,244,2056,59,-1,-1,-1,-9236.915,-5667.303,10306.058,-6691.911
8.786957,250,2051,67,-2,-1,-3,-9236.865,-5667.415,10306.094,-6691.830
8.806946,231,2051,52,-2,-1,-2,-9237.027,-5667.291,10306.098,-6691.704
8.826905,272,2044,57,-1,-2,-2,-9237.035,-5667.515,10306.023,-6691.619,205,-284,-324
8.846894,247,2057,66,-1,-1,0,-9236.865,-5667.657,10306.064,-6691.671
8.866883,251,2042,65,-2,-2,-3,-9236.861,-5667.645,10306.060,-6691.693
8.886902,270,2048,71,-1,-1,-1,-9236.762,-5667.702,10306.115,-6691.696
8.906861,235,2035,66,1,0,-1,-9236.580,-5667.691,10306.203,-6691.822
8.926880,260,2055,78,-2,-1,0,-9236.723,-5667.767,10305.939,-6691.966,203,-284,-324
8.946839,253,2045,45,0,0,-3,-9236.639,-5667.844,10306.010,-6691.909
8.966828,256,2043,70,-4,-1,0,-9236.725,-5667.944,10305.922,-6691.839
8.986817,241,2043,53,-1,-1,-2,-9236.858,-5667.969,10305.895,-6691.677
9.006806,245,2038,41,-2,-1,-1,-9236.983,-5667.966,10305.874,-6691.539
9.026764,252,2037,68,-1,-1,-2,-9237.015,-5667.830,10305.927,-6691.529,203,-286,-318
9.046784,253,2045,56,-3,-1,1,-9237.019,-5667.763,10306.000,-6691.467
9.066742,255,2054,67,-3,-2,-2,-9237.107,-5667.735,10306.070,-6691.262
9.086762,243,2062,61,-1,-1,0,-9237.132,-5667.724,10306.045,-6691.274
9.106720,252,2052,66,-1,-1,0,-9237.198,-5667.835,10305.979,-6691.191
9.126709,255,2044,51,-3,-1,-2,-9237.115,-5667.816,10305.978,-6691.323,209,-268,-319
9.146698,270,2036,75,-2,-1,0,-9236.891,-5667.898,10306.078,-6691.409,209,-268,-319,100068,28660
9.166688,245,2038,52,-2,-1,0,-9236.813,-5668.070,10306.112,-6691.320
9.186677,268,2048,59,-1,-1,-1,-9236.785,-5668.091,10306.222,-6691.171
9.206666,257,2044,48,-1,-1,0,-9236.744,-5668.273,10306.162,-6691.165
9.226624,255,2044,59,-1,-2,-2,-9236.773,-5668.149,10306.122,-6691.291,206,-278,-316
9.246644,242,2061,66,-1,-1,1,-9236.703,-5668.218,10306.087,-6691.384
9.266633,250,2030,46,-1,-1,1,-9236.629,-5668.241,10306.151,-6691.368
9.286591,254,2046,75,-2,-2,-1,-9236.671,-5668.128,10306.192,-6691.343
9.306580,245,2049,46,-1,-1,0,-9236.832,-5667.920,10306.225,-6691.245
9.326569,248,2043,74,-1,-1,-1,-9236.935,-5668.016,10306.095,-6691.223,202,-283,-316
9.346589,259,2058,67,1,0,-1,-9236.949,-5668.031,10306.078,-6691.216
9.366547,241,2050,65,-1,-1,-1,-9236.979,-5667.992,10306.139,-6691.115
9.386536,260,2039,59,-2,-1,-1,-9237.019,-5668.040,10306.096,-6691.084
9.406525,248,2041,70,-2,-2,0,-9237.025,-5668.044,10306.084,-6691.091
9.426514,267,2046,59,-1,-1,-1,-9236.987,-5668.088,10306.215,-6690.905,206,-278,-312
9.446503,250,2047,88,0,0,-1,-9237.086,-5667.935,10306.273,-6690.809
9.466462,259,2053,60,-1,-1,0,-9237.011,-5668.148,10306.272,-6690.732
9.486481,249,2044,43,-1,0,-3,-9236.896,-5668.248,10306.345,-6690.694
9.506440,277,2052,63,0,0,0,-9237.030,-5668.246,10306.279,-6690.612
9.526429,263,2050,85,-2,-1,-1,-9237.046,-5668.278,10306.192,-6690.698,212,-286,-324
9.546479,234,2050,76,0,0,0,-9237.080,-5668.185,10306.221,-6690.685
9.566407,259,2036,72,-1,-1,-1,-9237.191,-5668.211,10306.114,-6690.675
9.586396,253,2052,57,-2,-1,-2,-9237.297,-5668.303,10306.044,-6690.557
9.606385,242,2045,58,-1,-2,-3,-9237.446,-5668.237,10305.998,-6690.480
9.626374,260,2054,75,0,0,0,-9237.585,-5668.130,10305.890,-6690.544,188,-286,-318
9.646363,253,2033,59,0,0,-1,-9237.686,-5668.060,10305.850,-6690.526,188,-286,-318,100063,28660
9.666352,257,2058,94,0,0,-2,-9237.887,-5667.930,10305.748,-6690.515
9.686341,253,2059,61,-1,-1,-1,-9237.925,-5668.171,10305.594,-6690.496
9.706299,257,2042,68,1,0,-3,-9238.122,-5668.068,10305.505,-6690.449
9.726288,252,2043,50,-1,-1,-3,-9238.317,-5668.073,10305.382,-6690.363,204,-280,-321
9.746277,261,2051,57,-2,-3,-1,-9238.420,-5667.968,10305.439,-6690.223
9.766266,238,2047,76,-1,-2,-2,-9238.435,-5667.900,10305.410,-6690.306
9.786255,249,2058,76,-1,-2,0,-9238.540,-5668.083,10305.255,-6690.243
9.806244,267,2053,76,1,0,-1,-9238.512,-5668.149,10305.242,-6690.246
9.826233,258,2045,63,-2,-1,-2,-9238.475,-5668.420,10305.058,-6690.350,204,-283,-319
9.846192,256,2056,56,-1,-1,-1,-9238.630,-5668.372,10304.940,-6690.359
9.866211,248,2037,58,0,0,0,-9238.733,-5668.462,10304.843,-6690.291
9.886170,256,2053,78,0,0,-1,-9238.825,-5668.483,10304.782,-6690.240
9.906159,249,2049,82,0,0,-3,-9238.815,-5668.509,10304.848,-6690.129
9.926148,255,2050,50,-1,-1,-1,-9238.765,-5668.647,10304.795,-6690.163,215,-282,-318
9.946137,253,2043,78,-1,0,-1,-9238.726,-5668.691,10304.752,-6690.246
9.966126,233,2050,52,-1,-1,0,-9238.769,-5668.785,10304.742,-6690.123
9.986115,249,2047,55,-2,-2,-1,-9238.741,-5668.963,10304.673,-6690.118
10.006104,248,2049,65,0,0,0,-9238.777,-5669.142,10304.567,-6690.079
10.026093,254,2062,53,-1,-1,-3,-9238.873,-5669.433,10304.417,-6689.931,205,-284,-322
10.046052,248,2034,53,-2,-1,-3,-9238.965,-5669.465,10304.357,-6689.869
10.066041,237,2047,63,-2,-1,-2,-9238.882,-5669.779,10304.405,-6689.644
10.086030,255,2057,36,0,0,-3,-9238.866,-5669.826,10304.378,-6689.668
10.105988,262,2041,63,-2,-1,0,-9238.986,-5669.853,10304.222,-6689.719
10.125977,263,2057,72,-1,0,-1,-9239.026,-5669.873,10304.145,-6689.765,198,-286,-320
10.145966,245,2063,57,-1,-2,-2,-9239.105,-5669.636,10304.196,-6689.779,198,-286,-320,100067,28660
10.165955,245,2027,78,-1,-1,-2,-9239.214,-5669.806,10304.056,-6689.699
10.185944,241,2036,51,-2,-2,-3,-9239.238,-5669.782,10304.123,-6689.583
10.205933,249,2054,61,-1,-4,-1,-9239.276,-5669.779,10304.073,-6689.611
10.225922,269,2049,61,-1,-1,0,-9239.249,-5669.853,10304.086,-6689.565,196,-282,-315
10.245911,245,2045,74,-2,-1,-1,-9239.300,-5669.968,10303.999,-6689.531
10.265900,254,2052,57,-1,0,-1,-9239.216,-5669.818,10303.991,-6689.786
10.285889,262,2052,60,-1,-1,1,-9239.185,-5669.825,10304.080,-6689.686
10.305878,242,2041,60,-1,-1,0,-9239.309,-5669.886,10303.901,-6689.737
10.325837,243,2050,80,1,0,-3,-9239.409,-5669.936,10303.811,-6689.698,210,-270,-331
10.345826,245,2025,82,-2,-1,-1,-9239.363,-5669.782,10303.829,-6689.864
10.365815,251,2039,80,-2,-2,1,-9239.274,-5669.964,10303.813,-6689.857
10.385804,241,2052,59,1,0,0,-9239.275,-5669.738,10303.853,-6689.986
10.405793,246,2047,66,-1,-2,2,-9239.249,-5669.506,10303.981,-6690.020
10.425782,267,2051,65,-3,-2,0,-9239.203,-5669.780,10303.890,-6689.992,203,-282,-311
10.445771,256,2044,58,-1,0,-2,-9239.213,-5669.861,10303.897,-6689.899
10.465760,251,2055,59,-2,-1,2,-9239.120,-5669.900,10303.963,-6689.893
10.485749,260,2053,68,-3,-1,0,-9239.167,-5669.859,10303.903,-6689.955
10.505707,282,2055,53,-2,-1,0,-9239.109,-5669.977,10303.874,-6689.980
10.525696,262,2047,53,-1,-1,1,-9239.183,-5669.975,10303.813,-6689.974,203,-279,-324
10.545685,266,2053,75,-3,-2,-1,-9239.154,-5669.828,10303.845,-6690.089
10.565674,247,2042,59,-1,-1,0,-9239.236,-5669.798,10303.848,-6689.997
10.585663,256,2055,74,-2,-2,-1,-9239.303,-5669.727,10303.932,-6689.834
10.605652,252,2057,55,-1,-2,-1,-9239.327,-5669.936,10303.810,-6689.811
10.625641,252,2043,63,0,0,0,-9239.316,-5669.864,10303.930,-6689.705,207,-291,-322
10.645630,232,2054,55,-2,-2,-1,-9239.249,-5670.024,10303.945,-6689.637,207,-291,-322,100064,28660
10.665619,220,2042,48,-2,-1,0,-9239.222,-5669.905,10303.980,-6689.721
10.685578,252,2045,60,-2,-1,2,-9239.305,-5670.052,10303.923,-6689.570
10.705567,246,2055,51,-2,-1,-1,-9239.259,-5669.880,10304.129,-6689.462
10.725556,243,2031,55,-2,-2,1,-9239.333,-5669.753,10304.171,-6689.403,204,-280,-323
10.745545,266,2046,56,0,0,1,-9239.211,-5669.752,10304.393,-6689.231
10.765595,249,2050,65,-3,-1,0,-9239.209,-5669.695,10304.376,-6689.308
10.785523,257,2064,85,0,0,-1,-9239.325,-5669.627,10304.355,-6689.237
10.805512,249,2051,63,0,0,-2,-9239.292,-5669.547,10304.403,-6689.277
10.825501,248,2055,77,-1,-2,1,-9239.226,-5669.594,10304.354,-6689.404,198,-286,-311
10.845490,255,2044,62,1,0,1,-9239.128,-5669.574,10304.458,-6689.396
10.865479,250,2047,76,-3,-1,1,-9239.217,-5669.565,10304.391,-6689.384
10.885438,257,2046,65,1,0,-1,-9239.110,-5669.707,10304.444,-6689.329
10.905457,251,2042,65,-1,-1,0,-9238.984,-5669.653,10304.511,-6689.445
10.925416,267,2047,75,-1,-2,2,-9238.907,-5669.656,10304.624,-6689.375,199,-278,-328
10.945405,263,2052,84,-4,-2,0,-9238.882,-5669.595,10304.688,-6689.365
10.965394,251,2043,59,-1,-1,1,-9238.745,-5669.675,10304.769,-6689.360
10.985383,256,2058,78,-2,-1,0,-9238.703,-5669.686,10304.693,-6689.525
11.005372,256,2063,67,0,0,0,-9238.723,-5669.647,10304.625,-6689.636
11.025361,268,2053,87,-1,-2,2,-9238.726,-5669.631,10304.608,-6689.671,203,-279,-320
11.045380,250,2059,75,-2,-2,0,-9238.717,-5669.496,10304.660,-6689.719
11.065369,244,2055,66,0,1,2,-9238.732,-5669.571,10304.572,-6689.769
11.085358,260,2032,88,-1,-1,-1,-9238.685,-5669.566,10304.597,-6689.800
11.105317,251,2051,71,-3,-1,1,-9238.691,-5669.550,10304.607,-6689.790
11.125336,260,2040,66,-2,-1,0,-9238.775,-5669.644,10304.513,-6689.738,212,-279,-327
11.145295,245,2041,53,-1,-1,-2,-9238.755,-5669.732,10304.426,-6689.826,212,-279,-327,100062,28660
11.165284,255,2060,43,-1,-1,-1,-9238.744,-5669.878,10304.359,-6689.821
11.185273,260,2058,59,-2,-1,-2,-9238.800,-5669.684,10304.321,-6689.967
11.205262,260,2063,53,-1,-1,0,-9238.807,-5669.489,10304.387,-6690.019
11.225251,257,2042,62,-1,-1,0,-9238.672,-5669.638,10304.401,-6690.060,203,-279,-320
11.245240,256,2053,49,-1,0,0,-9238.547,-5669.622,10304.430,-6690.200
11.265229,257,2056,56,0,1,0,-9238.442,-5669.506,10304.569,-6690.230
11.285218,234,2042,67,-4,-1,0,-9238.384,-5669.647,10304.544,-6690.230
11.305207,248,2055,48,-1,0,-2,-9238.471,-5669.613,10304.542,-6690.140
11.325196,243,2040,89,-2,-3,-1,-9238.608,-5669.819,10304.307,-6690.139,219,-286,-324
11.345154,244,2050,53,1,1,-3,-9238.629,-5669.856,10304.408,-6689.923
11.365143,262,2058,95,-3,-2,0,-9238.578,-5669.623,10304.556,-6689.963
11.385132,261,2042,56,-2,-2,1,-9238.428,-5669.615,10304.646,-6690.038
11.405121,250,2060,52,-1,-1,-1,-9238.502,-5669.599,10304.558,-6690.085
11.425110,260,2041,77,-2,-1,-1,-9238.313,-5669.666,10304.744,-6690.002,196,-282,-308
11.445099,252,2056,59,-2,-1,0,-9238.036,-5669.766,10304.818,-6690.187
11.465088,260,2054,62,-2,0,2,-9237.918,-5669.772,10304.873,-6690.258
11.485047,254,2029,75,-2,-1,1,-9237.855,-5669.862,10304.883,-6690.255
11.505066,250,2043,76,-3,-2,-1,-9237.766,-5669.999,10304.884,-6690.259
11.525025,250,2054,63,-1,-1,-1,-9237.764,-5669.983,10304.930,-6690.206,205,-284,-327
11.545014,244,2039,86,0,0,-1,-9237.679,-5669.997,10305.025,-6690.165
11.565003,257,2047,36,-1,-1,0,-9237.780,-5670.126,10304.899,-6690.111
11.584992,256,2062,94,1,0,1,-9237.776,-5670.197,10304.821,-6690.175
11.604981,249,2047,84,-1,-1,0,-9237.681,-5670.164,10304.961,-6690.119
11.624970,255,2034,43,0,0,0,-9237.645,-5670.300,10304.981,-6690.023,210,-291,-306
11.644959,249,2028,85,-2,-1,-1,-9237.518,-5670.394,10304.980,-6690.120,210,-291,-306,100063,28660
11.664917,266,2051,62,0,0,0,-9237.428,-5670.396,10305.083,-6690.083
11.684937,256,2046,62,-1,-1,2,-9237.491,-5670.261,10305.043,-6690.174
11.704896,247,2043,59,-1,-2,0,-9237.431,-5670.265,10305.076,-6690.201
11.724885,261,2056,81,-3,-1,-1,-9237.440,-5670.272,10305.148,-6690.072,209,-273,-321
11.744874,270,2029,59,-1,-1,-2,-9237.396,-5670.375,10305.145,-6690.050
11.764863,267,2048,45,-1,-1,-1,-9237.332,-5670.489,10305.118,-6690.083
11.784852,263,2048,88,-1,-1,0,-9237.249,-5670.320,10305.140,-6690.307
11.804841,248,2061,60,-1,-2,2,-9237.132,-5670.233,10305.231,-6690.403
11.824830,243,2041,70,-1,-1,0,-9237.132,-5670.269,10305.248,-6690.346,213,-278,-316
11.844819,260,2038,75,-3,-1,0,-9237.146,-5670.302,10305.255,-6690.289
11.864808,241,2057,43,-2,-1,-1,-9237.008,-5670.293,10305.396,-6690.269
11.884797,258,2043,101,0,0,1,-9237.016,-5670.437,10305.377,-6690.165
11.904755,261,2063,56,-1,-1,-1,-9236.973,-5670.477,10305.370,-6690.201
11.924775,256,2036,62,-1,-1,0,-9236.913,-5670.451,10305.466,-6690.158,205,-279,-318
11.944733,266,2048,78,-1,-1,1,-9236.858,-5670.452,10305.432,-6690.284
11.964722,268,2042,63,0,0,0,-9236.973,-5670.513,10305.416,-6690.100
11.984803,256,2051,80,-3,-3,-2,-9236.999,-5670.591,10305.345,-6690.108
12.004700,246,2057,35,-1,-1,0,-9237.058,-5670.646,10305.304,-6690.043
12.024689,256,2045,68,-2,-2,-2,-9237.165,-5670.647,10305.190,-6690.069,204,-288,-319
12.044678,257,2043,66,0,0,0,-9237.121,-5670.720,10305.215,-6690.029
12.064667,237,2049,67,-2,-1,-2,-9237.078,-5670.551,10305.233,-6690.205
12.084626,263,2037,71,-1,-1,2,-9237.118,-5670.521,10305.151,-6690.301
12.104645,259,2034,31,-1,-1,-2,-9237.073,-5670.662,10305.118,-6690.294
12.124604,260,2046,70,-1,-1,0,-9237.210,-5670.487,10305.096,-6690.288,203,-282,-320
12.144593,269,2037,85,-2,-1,-1,-9237.313,-5670.594,10304.989,-6690.219,203,-282,-320,100065,28670
12.164582,255,2040,46,-1,-1,-1,-9237.190,-5670.548,10305.049,-6690.335
12.184571,251,2029,66,-1,-1,-1,-9237.087,-5670.636,10305.059,-6690.389
12.204560,259,2046,49,-2,1,1,-9237.211,-5670.577,10304.926,-6690.472
12.224549,245,2052,80,0,-1,0,-9237.177,-5670.571,10304.941,-6690.500,198,-286,-320
12.244538,258,2054,63,-2,-1,0,-9237.139,-5670.470,10305.022,-6690.513
12.264527,249,2036,63,-1,-1,-1,-9237.211,-5670.327,10305.034,-6690.517
12.284516,255,2059,63,-1,-2,0,-9237.257,-5670.565,10304.864,-6690.514
12.304474,253,2040,69,1,0,0,-9237.147,-5670.561,10304.920,-6690.583
12.324463,258,2052,49,0,0,0,-9237.202,-5670.570,10304.857,-6690.596,202,-288,-314
12.344452,258,2055,51,-1,-1,0,-9237.210,-5670.453,10304.887,-6690.638
12.364441,267,2055,79,-2,-2,0,-9237.130,-5670.366,10305.002,-6690.645
12.384430,262,2043,63,-2,-1,-1,-9237.020,-5670.416,10305.052,-6690.679
12.404419,257,2051,62,-2,0,1,-9237.003,-5670.372,10305.052,-6690.740
12.424408,253,2049,66,-1,-2,0,-9236.933,-5670.362,10305.093,-6690.780,207,-274,-318
12.444397,254,2042,52,0,0,1,-9236.850,-5670.460,10305.155,-6690.717
12.464386,256,2052,68,0,0,-2,-9236.791,-5670.487,10305.286,-6690.574
12.484375,253,2041,63,-3,-1,-1,-9236.470,-5670.671,10305.501,-6690.530
12.504334,249,2036,52,-3,-1,-1,-9236.282,-5670.722,10305.494,-6690.757
12.524354,254,2042,41,1,1,1,-9236.365,-5670.820,10305.404,-6690.698,200,-277,-315
12.544343,259,2040,55,-2,-1,-1,-9236.394,-5670.822,10305.291,-6690.829
12.564301,258,2044,74,-2,-3,0,-9236.527,-5670.689,10305.212,-6690.882
12.584290,276,2045,62,0,0,-1,-9236.380,-5670.783,10305.265,-6690.922
12.604279,268,2040,62,0,0,1,-9236.309,-5670.710,10305.182,-6691.211
12.624268,248,2059,72,1,0,1,-9236.258,-5670.700,10305.274,-6691.147,207,-282,-322
12.644257,265,2046,66,-2,-1,0,-9236.271,-5670.639,10305.242,-6691.230,207,-282,-322,100067,28660
12.664246,259,2043,50,-1,0,-2,-9236.064,-5670.771,10305.315,-6691.291
12.684235,251,2056,86,-3,-1,0,-9236.005,-5670.995,10305.197,-6691.364
12.704224,238,2039,33,0,1,0,-9235.845,-5671.093,10305.204,-6691.492
12.724183,255,2039,60,-2,-2,0,-9236.005,-5671.216,10305.009,-6691.467,204,-276,-321
12.744202,254,2043,55,-2,-1,1,-9235.880,-5671.170,10305.005,-6691.684
12.764161,256,2041,72,0,0,-1,-9235.851,-5671.291,10304.992,-6691.641
12.784150,261,2045,85,-1,0,0,-9235.803,-5671.160,10305.144,-6691.586
12.804139,261,2054,55,-2,-4,2,-9235.709,-5671.279,10305.151,-6691.603
12.824128,251,2043,58,-1,-1,-1,-9235.713,-5671.317,10305.158,-6691.554,212,-274,-318
12.844117,253,2046,66,-2,-2,-2,-9235.742,-5671.297,10305.150,-6691.545
12.864106,254,2056,81,-2,-2,0,-9235.690,-5671.322,10305.275,-6691.402
12.884095,252,2044,68,-3,-2,-1,-9235.619,-5671.334,10305.298,-6691.455
12.904084,254,2061,48,0,0,0,-9235.463,-5671.181,10305.443,-6691.577
12.924042,265,2054,70,-2,-1,1,-9235.466,-5671.188,10305.392,-6691.646,203,-282,-315
12.944031,259,2049,49,0,0,-1,-9235.463,-5671.079,10305.374,-6691.770
12.964051,250,2041,51,0,0,1,-9235.457,-5671.054,10305.297,-6691.916
12.984009,255,2040,100,0,0,0,-9235.519,-5671.058,10305.227,-6691.936
13.003998,240,2040,63,-1,-1,-2,-9235.371,-5671.205,10305.257,-6691.971
13.023987,272,2034,79,-1,-1,0,-9235.441,-5671.387,10305.183,-6691.833,216,-276,-333
13.043976,244,2047,60,-3,-1,-1,-9235.342,-5671.343,10305.290,-6691.842
13.063965,272,2068,53,-2,-1,1,-9235.289,-5671.235,10305.418,-6691.811
13.083954,245,2041,79,-1,-2,0,-9235.124,-5671.136,10305.514,-6691.974
13.103943,251,2048,71,-2,-1,2,-9235.171,-5671.083,10305.581,-6691.849
13.123932,256,2035,38,-3,-2,0,-9235.220,-5671.068,10305.594,-6691.775,212,-282,-320
13.143891,263,2039,67,-1,-1,-1,-9235.203,-5671.067,10305.487,-6691.965,212,-282,-320,100063,28660
13.163880,253,2033,85,-1,-1,1,-9235.099,-5671.150,10305.469,-6692.064
13.183869,258,2045,63,0,0,0,-9235.012,-5671.178,10305.501,-6692.112
13.203919,245,2026,70,0,0,1,-9235.093,-5670.985,10305.478,-6692.200
13.223847,260,2035,63,-1,-3,1,-9234.932,-5670.910,10305.666,-6692.196,207,-274,-322
13.243836,264,2048,65,-3,-1,1,-9234.972,-5670.701,10305.667,-6692.316
13.263825,254,2058,65,-1,-1,1,-9235.052,-5670.800,10305.446,-6692.461
13.283814,263,2052,37,-1,0,1,-9235.044,-5670.782,10305.431,-6692.512
13.303772,240,2039,61,1,0,-1,-9235.089,-5670.826,10305.303,-6692.609
13.323792,273,2034,32,-2,-1,0,-9235.216,-5670.842,10305.303,-6692.421,193,-282,-327
13.343750,255,2053,55,-2,-2,-1,-9235.296,-5670.857,10305.207,-6692.447
13.363740,243,2050,75,-1,-2,0,-9235.230,-5670.908,10305.216,-6692.479
13.383729,235,2036,61,-1,-1,0,-9235.173,-5671.098,10305.229,-6692.376
13.403718,255,2053,90,-1,-1,1,-9234.999,-5671.138,10305.311,-6692.457
13.423707,259,2028,71,-2,-1,0,-9234.912,-5671.272,10305.252,-6692.554,203,-286,-311
13.443696,245,2047,57,-1,-1,1,-9234.965,-5671.183,10305.247,-6692.564
13.463685,259,2073,79,-1,-2,1,-9234.950,-5671.299,10305.186,-6692.580
13.483674,250,2042,69,-1,-2,-1,-9234.851,-5671.366,10305.197,-6692.642
13.503663,265,2056,45,-1,-1,-1,-9234.783,-5671.321,10305.204,-6692.765
13.523621,255,2062,84,-1,-1,1,-9234.734,-5671.206,10305.220,-6692.904,203,-284,-313
13.543641,259,2052,100,-2,-1,1,-9234.717,-5671.297,10305.256,-6692.796
13.563599,262,2034,48,-1,-1,-1,-9234.718,-5671.273,10305.336,-6692.690
13.583588,266,2059,82,-2,-2,1,-9234.724,-5671.315,10305.185,-6692.880
13.603577,245,2038,62,0,0,0,-9234.660,-5671.364,10305.262,-6692.808
13.623566,259,2056,50,-2,-1,-1,-9234.562,-5671.469,10305.340,-6692.735,196,-284,-324
13.643555,257,2040,59,-2,-1,-1,-9234.604,-5671.464,10305.289,-6692.759,196,-284,-324,100068,28660
13.663544,263,2038,69,-2,-1,0,-9234.656,-5671.433,10305.168,-6692.899
13.683533,257,2050,74,0,0,0,-9234.669,-5671.388,10305.208,-6692.859
13.703522,260,2032,78,-2,-1,-2,-9234.669,-5671.372,10305.224,-6692.848
13.723481,257,2029,69,-3,-1,0,-9234.694,-5671.431,10305.320,-6692.615,210,-294,-313
13.743500,254,2045,53,-1,-2,-2,-9234.637,-5671.381,10305.350,-6692.690
13.763489,255,2057,45,-1,0,0,-9234.441,-5671.405,10305.440,-6692.801
13.783448,256,2034,77,-2,-2,-1,-9234.577,-5671.303,10305.361,-6692.823
13.803437,257,2054,63,0,0,-1,-9234.527,-5671.413,10305.264,-6692.948
13.823426,265,2049,78,-1,-1,-1,-9234.454,-5671.405,10305.283,-6693.026,202,-288,-328
13.843415,253,2051,55,-1,-1,1,-9234.579,-5671.389,10305.125,-6693.109
13.863404,256,2057,51,0,-1,0,-9234.604,-5671.428,10305.026,-6693.194
13.883393,258,2041,76,0,0,-1,-9234.520,-5671.462,10305.021,-6693.289
13.903382,249,2052,62,-3,-2,-1,-9234.494,-5671.491,10304.997,-6693.338
13.923371,266,2044,76,-1,-1,0,-9234.483,-5671.490,10304.863,-6693.559,209,-285,-312
13.943329,245,2036,65,-2,-1,-1,-9234.515,-5671.485,10304.818,-6693.590
13.963349,246,2045,32,-1,-1,0,-9234.440,-5671.357,10304.894,-6693.685
13.983307,256,2052,72,-2,-1,0,-9234.357,-5671.462,10304.984,-6693.573
14.003296,262,2044,61,-3,-1,0,-9234.339,-5671.595,10304.962,-6693.518
14.023285,258,2037,86,0,0,1,-9234.267,-5671.655,10304.983,-6693.534,207,-279,-324
14.043274,254,2054,35,-1,0,-2,-9234.168,-5671.698,10305.063,-6693.511
14.063263,259,2045,67,-1,-1,1,-9234.245,-5671.461,10305.061,-6693.608
14.083252,250,2043,74,-1,-1,0,-9234.249,-5671.294,10305.099,-6693.686
14.103241,269,2065,92,0,-2,0,-9234.192,-5671.170,10305.169,-6693.761
14.123230,258,2051,62,0,0,2,-9233.928,-5671.240,10305.395,-6693.720,209,-276,-314
14.143189,257,2059,80,-3,-1,-1,-9233.826,-5671.203,10305.435,-6693.830,209,-276,-314,100063,28660
14.163208,244,2044,41,-1,-2,1,-9233.746,-5670.987,10305.616,-6693.844
14.183167,241,2041,70,-2,-1,0,-9233.828,-5670.824,10305.586,-6693.914
14.203187,256,2047,92,-2,-2,1,-9233.873,-5670.686,10305.652,-6693.867
14.223145,254,2022,80,-2,-2,-1,-9233.804,-5670.777,10305.775,-6693.697,211,-273,-323
14.243134,246,2053,84,-1,-1,-1,-9233.841,-5670.848,10305.794,-6693.556
14.263123,261,2048,63,-1,-1,0,-9233.820,-5670.822,10305.932,-6693.395
14.283112,252,2064,66,-3,-1,0,-9233.792,-5670.926,10305.913,-6693.375
14.303162,272,2043,49,-2,-1,0,-9233.951,-5670.902,10305.850,-6693.272
14.323090,254,2038,60,0,0,-1,-9234.014,-5670.837,10305.767,-6693.370
14.343049,249,2043,75,-2,-1,-1,-9233.972,-5670.629,10305.907,-6693.387,196,-282,-324
14.363038,251,2058,71,-2,-1,2,-9233.855,-5670.622,10305.932,-6693.517
14.383027,245,2052,68,-1,-1,0,-9233.859,-5670.755,10305.791,-6693.614
14.403046,268,2042,50,-1,-1,-2,-9233.816,-5670.889,10305.818,-6693.519
14.423096,253,2055,39,-3,-1,-1,-9233.772,-5670.963,10305.808,-6693.533
14.442994,254,2052,76,-2,-1,-1,-9233.896,-5670.907,10305.803,-6693.417,204,-285,-312
14.462983,255,2030,69,-2,-1,0,-9233.850,-5671.182,10305.644,-6693.493
14.482972,266,2041,72,0,1,-2,-9233.913,-5671.184,10305.480,-6693.656
14.502961,255,2042,70,1,0,1,-9233.926,-5671.088,10305.544,-6693.620
14.522950,242,2055,65,-2,-2,-2,-9233.846,-5671.146,10305.598,-6693.598
14.542939,243,2037,62,-2,-1,0,-9233.781,-5671.121,10305.635,-6693.652,211,-288,-316
14.562928,249,2048,55,-1,-1,-1,-9233.612,-5671.193,10305.743,-6693.658
14.582917,245,2044,80,0,0,-2,-9233.555,-5671.336,10305.785,-6693.551
14.602875,233,2049,74,-3,-1,0,-9233.432,-5671.489,10305.851,-6693.490
14.622864,248,2044,58,-3,-1,-1,-9233.589,-5671.528,10305.699,-6693.474
14.642853,253,2051,74,-2,-2,1,-9233.675,-5671.461,10305.634,-6693.512,202,-288,-319,100063,28660
14.662873,258,2038,48,-1,-1,-1,-9233.623,-5671.454,10305.729,-6693.444
14.682831,247,2049,65,-2,-3,-1,-9233.598,-5671.314,10305.759,-6693.551
14.702820,260,2032,78,0,0,2,-9233.647,-5671.294,10305.756,-6693.504
14.722809,248,2048,72,-2,-1,-2,-9233.673,-5671.171,10305.832,-6693.455
14.742798,254,2063,88,-1,-1,1,-9233.512,-5671.063,10305.957,-6693.578,200,-277,-320
14.762757,262,2036,72,-1,-1,2,-9233.427,-5671.186,10305.921,-6693.646
14.782746,259,2052,85,-1,-1,1,-9233.358,-5671.195,10306.003,-6693.608
14.802765,254,2039,60,-3,-2,0,-9233.410,-5671.333,10305.950,-6693.500
14.822724,266,2059,76,-1,-1,-1,-9233.460,-5671.261,10305.950,-6693.491
14.842713,259,2029,56,-1,-1,1,-9233.365,-5671.296,10305.989,-6693.532,210,-284,-322
14.862702,272,2054,50,-2,-1,1,-9233.499,-5671.160,10305.975,-6693.486
14.882691,261,2059,60,-1,-2,-1,-9233.430,-5670.984,10306.108,-6693.525
14.902680,252,2033,68,-1,0,1,-9233.644,-5671.034,10306.019,-6693.323
14.922669,252,2054,61,-2,-1,0,-9233.665,-5671.044,10305.981,-6693.345
14.942627,249,2049,84,-2,-1,-1,-9233.636,-5671.122,10305.900,-6693.444,205,-294,-315
14.962647,261,2068,74,-1,-1,-1,-9233.537,-5671.116,10305.906,-6693.577
14.982636,263,2044,40,-1,-1,0,-9233.573,-5670.979,10305.919,-6693.623
15.002625,254,2037,99,0,-1,1,-9233.605,-5670.873,10305.863,-6693.754
15.022583,248,2060,49,0,0,0,-9233.428,-5670.978,10305.945,-6693.785
15.042573,246,2050,101,-3,-3,1,-9233.342,-5671.016,10305.872,-6693.982,197,-283,-316
15.062562,264,2066,39,0,0,0,-9233.335,-5670.944,10305.924,-6693.972
15.082551,262,2055,67,-2,-2,-1,-9233.296,-5670.908,10305.836,-6694.193
15.102540,259,2061,68,-1,-1,2,-9233.313,-5670.854,10305.836,-6694.215
15.122529,244,2049,60,-1,-2,-1,-9233.287,-5671.004,10305.719,-6694.304
15.142487,252,2043,66,0,1,1,-9233.357,-5670.817,10305.697,-6694.400,205,-284,-313,100064,28660
15.162507,260,2050,52,0,0,-2,-9233.375,-5670.994,10305.674,-6694.261
15.182496,259,2060,105,-3,-1,-2,-9233.446,-5671.094,10305.460,-6694.408
15.202454,255,2051,50,0,1,-1,-9233.238,-5671.122,10305.599,-6694.455
15.222443,251,2045,45,-3,-1,0,-9233.310,-5671.128,10305.577,-6694.386
15.242432,255,2043,58,-2,-1,-1,-9233.446,-5671.237,10305.346,-6694.462,197,-285,-319
15.262421,261,2035,94,0,0,0,-9233.506,-5671.190,10305.401,-6694.334
15.282410,257,2052,58,-2,-1,0,-9233.396,-5671.238,10305.457,-6694.359
15.302399,250,2054,59,0,0,0,-9233.399,-5671.296,10305.310,-6694.532
15.322388,272,2058,85,0,2,1,-9233.380,-5671.179,10305.300,-6694.672
15.342347,250,2062,57,-1,-1,1,-9233.544,-5671.142,10305.108,-6694.774,200,-286,-322
15.362336,249,2047,90,1,0,0,-9233.538,-5671.042,10305.223,-6694.688
15.382355,252,2041,78,-2,-1,0,-9233.542,-5670.928,10305.232,-6694.766
15.402344,258,2044,77,-1,-1,-1,-9233.443,-5670.970,10305.304,-6694.757
15.422333,248,2045,77,-2,-1,0,-9233.479,-5670.990,10305.253,-6694.768
15.442292,255,2056,86,-1,-1,0,-9233.492,-5670.875,10305.292,-6694.788,212,-284,-320
15.462281,242,2060,79,-1,-1,1,-9233.395,-5670.848,10305.396,-6694.785
15.482270,256,2039,87,-2,-1,1,-9233.327,-5670.907,10305.320,-6694.945
15.502259,255,2040,81,0,0,1,-9233.366,-5670.801,10305.368,-6694.908
15.522248,254,2041,50,-1,-2,0,-9233.306,-5670.723,10305.499,-6694.854
15.542206,248,2037,57,-1,-2,0,-9233.299,-5670.899,10305.459,-6694.777,206,-278,-316
15.562226,264,2042,76,-1,-2,-1,-9233.215,-5670.793,10305.572,-6694.809
15.582184,249,2050,82,-1,-1,2,-9233.222,-5670.595,10305.642,-6694.859
15.602173,257,2045,53,1,0,0,-9233.102,-5670.661,10305.732,-6694.829
15.622162,285,2047,63,-2,-1,1,-9233.037,-5670.568,10305.731,-6694.999
15.642212,251,2062,70,0,0,1,-9233.074,-5670.605,10305.648,-6695.044,203,-282,-320,100065,28670
15.662140,251,2059,69,-2,-1,-1,-9233.064,-5670.712,10305.745,-6694.819
15.682129,243,2058,72,-2,-3,-1,-9233.064,-5670.826,10305.849,-6694.564
15.702118,246,2036,67,-3,-1,-2,-9232.980,-5670.834,10305.880,-6694.623
15.722107,263,2049,67,-1,-1,2,-9233.058,-5670.795,10305.826,-6694.633
15.742096,249,2052,75,1,1,-2,-9233.035,-5670.784,10305.799,-6694.715,209,-280,-323
15.762085,271,2055,76,0,1,-1,-9232.976,-5670.918,10305.844,-6694.614
15.782074,249,2051,65,1,0,-2,-9233.103,-5670.808,10305.773,-6694.641
15.802033,263,2042,57,1,1,0,-9233.025,-5670.786,10305.990,-6694.433
15.822052,260,2066,48,-2,-3,-2,-9233.058,-5670.730,10306.040,-6694.358
15.842011,253,2045,68,-1,-2,-1,-9233.127,-5670.664,10306.049,-6694.304,216,-278,-319
15.862000,246,2042,87,-2,-1,0,-9233.047,-5670.622,10306.229,-6694.174
15.881989,238,2039,74,-4,-3,0,-9233.025,-5670.681,10306.274,-6694.085
15.901978,248,2048,66,-1,-1,0,-9232.947,-5670.728,10306.329,-6694.067
15.921967,263,2025,61,-1,0,1,-9233.006,-5670.729,10306.298,-6694.032
15.941956,243,2053,60,0,0,-1,-9233.010,-5670.604,10306.335,-6694.076,199,-280,-312
15.961945,256,2036,61,-1,-1,0,-9233.122,-5670.742,10306.255,-6693.929
15.981934,250,2059,79,-1,-1,-1,-9233.025,-5670.725,10306.349,-6693.932
16.001923,255,2044,42,-3,-2,-2,-9232.894,-5670.960,10306.257,-6694.056
16.021882,260,2043,82,-1,0,1,-9232.861,-5670.917,10306.262,-6694.129
16.041840,245,2050,95,-3,-2,1,-9232.666,-5671.106,10306.298,-6694.182,194,-268,-321
16.061829,268,2035,52,-2,0,-2,-9232.779,-5671.216,10306.179,-6694.117
16.081818,252,2049,68,-2,-3,2,-9232.691,-5671.235,10306.202,-6694.186
16.101807,269,2049,61,-2,-1,0,-9232.778,-5671.134,10306.296,-6694.007
16.121796,256,2062,86,-1,-3,1,-9232.776,-5671.164,10306.213,-6694.112
16.141785,258,2061,112,-1,0,-1,-9232.666,-5671.208,10306.269,-6694.140,205,-286,-318,100068,28660
16.161774,251,2038,63,0,0,1,-9232.549,-5671.208,10306.394,-6694.111
16.181763,264,2046,87,-2,-1,1,-9232.526,-5671.234,10306.367,-6694.161
16.201752,244,2054,59,-1,-1,1,-9232.446,-5671.352,10306.299,-6694.277
16.221741,266,2047,74,-2,-1,0,-9232.484,-5671.292,10306.314,-6694.252
16.241700,252,2037,84,0,0,3,-9232.534,-5671.261,10306.376,-6694.114,206,-283,-321
16.261689,262,2039,74,-2,-3,0,-9232.607,-5671.377,10306.301,-6694.030
16.281708,259,2037,84,-1,-3,0,-9232.608,-5671.198,10306.313,-6694.162
16.301667,259,2057,52,0,0,-1,-9232.572,-5671.181,10306.391,-6694.105
16.321656,267,2048,57,-3,-1,2,-9232.636,-5671.191,10306.347,-6694.077
16.341645,250,2056,59,-2,-1,-1,-9232.591,-5671.179,10306.307,-6694.210,205,-277,-329
16.361634,244,2040,68,-1,-1,1,-9232.651,-5671.196,10306.175,-6694.317
16.381623,258,2053,59,-1,-1,-1,-9232.438,-5671.359,10306.291,-6694.292
16.401612,248,2047,67,-3,-1,0,-9232.493,-5671.219,10306.280,-6694.352
16.421570,249,2030,60,-1,-2,0,-9232.614,-5671.116,10306.217,-6694.371
16.441559,242,2067,81,-1,-2,0,-9232.716,-5671.106,10306.141,-6694.355,216,-285,-319
16.461548,256,2045,68,0,0,0,-9232.652,-5671.204,10306.157,-6694.335
16.481537,250,2049,47,-1,-1,0,-9232.574,-5671.298,10306.209,-6694.285
16.501526,263,2044,62,-3,-1,1,-9232.586,-5671.428,10306.276,-6694.055
16.521515,260,2054,63,-2,-2,-1,-9232.505,-5671.512,10306.271,-6694.101
16.541504,257,2037,71,-1,0,0,-9232.493,-5671.487,10306.360,-6694.004,218,-283,-323
16.561493,267,2046,74,-1,-3,-1,-9232.524,-5671.591,10306.317,-6693.938
16.581482,263,2032,61,-1,-1,1,-9232.408,-5671.374,10306.464,-6694.057
16.601471,251,2050,71,1,0,0,-9232.307,-5671.318,10306.536,-6694.132
16.621430,259,2042,62,-2,-1,0,-9232.277,-5671.320,10306.408,-6694.369
16.641419,264,2031,66,-2,-1,1,-9232.313,-5671.284,10306.420,-6694.330,204,-283,-326,100064,28660
16.661408,264,2058,63,-2,-1,-2,-9232.259,-5671.221,10306.484,-6694.359
16.681397,267,2048,74,-2,-1,0,-9232.276,-5671.090,10306.512,-6694.404
16.701417,256,2044,41,-2,-1,1,-9232.290,-5670.963,10306.534,-6694.459
16.721375,250,2037,68,-1,-2,2,-9232.359,-5670.942,10306.483,-6694.460
16.741364,272,2047,52,0,0,-1,-9232.251,-5670.909,10306.628,-6694.414,203,-274,-318
16.761353,264,2053,56,-2,-1,1,-9232.260,-5670.898,10306.630,-6694.407
16.781342,253,2059,97,-1,-1,-1,-9232.201,-5670.750,10306.651,-6694.582
16.801331,250,2055,57,0,0,0,-9232.113,-5670.655,10306.810,-6694.539
16.821320,260,2042,79,-2,-1,1,-9232.002,-5670.686,10306.826,-6694.641
16.841279,267,2051,84,0,0,2,-9232.018,-5670.570,10306.953,-6694.522,206,-278,-307
16.861329,244,2049,69,-2,-1,0,-9231.888,-5670.565,10307.117,-6694.452
16.881257,251,2037,30,-1,-1,2,-9231.824,-5670.531,10307.191,-6694.456
16.901246,252,2039,50,-2,-2,1,-9231.837,-5670.512,10307.150,-6694.517
16.921235,256,2046,61,-2,-1,-1,-9231.806,-5670.664,10307.135,-6694.455
16.941224,247,2041,48,0,0,0,-9231.778,-5670.702,10307.267,-6694.257,198,-279,-324
16.961213,258,2032,79,-3,-2,-1,-9231.790,-5670.676,10307.364,-6694.115
16.981202,256,2047,63,-3,-2,1,-9231.729,-5670.539,10307.463,-6694.162
17.001191,261,2048,42,-3,-1,2,-9231.599,-5670.431,10307.657,-6694.134
17.021180,255,2045,66,-1,-1,1,-9231.566,-5670.322,10307.728,-6694.163
17.041199,246,2055,60,-1,-3,0,-9231.503,-5670.568,10307.673,-6694.125,191,-282,-315
17.061158,265,2053,81,-1,0,-2,-9231.666,-5670.327,10307.629,-6694.171
17.081147,260,2032,59,-1,-2,0,-9231.649,-5670.354,10307.694,-6694.073
17.101136,252,2038,69,-3,-1,0,-9231.685,-5670.433,10307.643,-6694.034
17.121155,238,2043,75,-2,-2,0,-9231.864,-5670.301,10307.585,-6693.989
17.141114,254,2047,62,-1,-1,1,-9231.862,-5670.364,10307.577,-6693.951,199,-280,-314,100064,28660
17.161103,242,2052,74,-2,-2,-2,-9231.725,-5670.403,10307.647,-6693.999
17.181092,270,2041,57,-2,-1,0,-9231.676,-5670.435,10307.711,-6693.940
17.201081,243,2043,57,-1,-3,0,-9231.770,-5670.494,10307.575,-6693.971
17.221039,245,2038,59,-3,-1,-1,-9231.746,-5670.422,10307.611,-6694.009
17.241028,243,2038,71,-2,-1,0,-9231.676,-5670.455,10307.690,-6693.957,207,-274,-311
17.261017,271,2057,69,-2,-1,0,-9231.777,-5670.297,10307.640,-6694.028
17.281006,257,2050,92,0,0,1,-9231.746,-5670.150,10307.616,-6694.231
17.300995,251,2046,59,-1,-1,4,-9231.508,-5670.231,10307.690,-6694.378
17.320984,244,2054,61,-1,0,0,-9231.552,-5670.337,10307.548,-6694.447
17.340973,251,2034,69,0,0,0,-9231.567,-5670.343,10307.511,-6694.477,206,-288,-319
17.360962,241,2039,58,-2,-1,0,-9231.476,-5670.369,10307.577,-6694.480
17.380921,256,2068,76,-3,-2,0,-9231.483,-5670.173,10307.639,-6694.540
17.400940,252,2067,62,-3,-2,0,-9231.328,-5670.279,10307.728,-6694.526
17.420899,267,2053,55,-3,-1,-1,-9231.436,-5670.270,10307.613,-6694.562
17.440918,252,2061,70,-2,-2,0,-9231.535,-5670.249,10307.509,-6694.604,211,-280,-312
17.460877,246,2055,49,-2,-2,-1,-9231.331,-5670.259,10307.616,-6694.711
17.480866,257,2044,58,-2,0,1,-9231.411,-5670.372,10307.461,-6694.745
17.500855,225,2057,76,-2,-1,-1,-9231.448,-5670.257,10307.347,-6694.967
17.520844,257,2042,76,-1,-1,1,-9231.416,-5670.303,10307.264,-6695.099
17.540833,247,2040,71,-1,0,1,-9231.207,-5670.463,10307.413,-6695.023,209,-280,-316
17.560822,244,2054,69,-2,-1,-1,-9231.204,-5670.058,10307.518,-6695.209
17.580781,263,2038,74,-1,-1,2,-9231.165,-5670.125,10307.511,-6695.217
17.600800,248,2049,63,-1,-1,-1,-9231.101,-5670.173,10307.557,-6695.193
17.620789,261,2047,79,-2,-2,0,-9231.126,-5670.135,10307.577,-6695.160
17.640748,258,2041,88,-2,-2,-1,-9231.065,-5670.192,10307.585,-6695.183,204,-278,-319,100069,28660
17.660737,238,2059,63,-2,-2,-1,-9230.984,-5670.099,10307.673,-6695.237
17.680726,265,2052,62,0,0,-1,-9231.027,-5670.083,10307.683,-6695.177
17.700715,256,2042,50,-2,-1,-2,-9230.995,-5670.254,10307.597,-6695.208
17.720704,261,2048,60,-2,-1,-1,-9230.856,-5670.296,10307.572,-6695.404
17.740693,234,2045,50,0,0,0,-9230.853,-5670.046,10307.647,-6695.504,200,-277,-318
17.760682,248,2039,61,-1,-2,1,-9230.799,-5670.010,10307.641,-6695.617
17.780671,263,2055,60,-1,0,0,-9230.886,-5669.977,10307.605,-6695.580
17.800660,255,2055,86,-1,-1,0,-9230.986,-5670.008,10307.567,-6695.476
17.820649,249,2053,59,0,-2,0,-9230.972,-5670.022,10307.591,-6695.446
17.840607,251,2056,77,-4,-2,1,-9230.944,-5669.939,10307.721,-6695.354,203,-279,-315
17.860596,269,2051,62,-4,-3,-1,-9230.895,-5669.727,10307.772,-6695.524
17.880585,278,2054,61,-1,-2,2,-9230.845,-5669.612,10307.735,-6695.747
17.900574,246,2048,82,0,0,0,-9230.853,-5669.584,10307.767,-6695.710
17.920563,258,2048,71,-2,-1,-2,-9230.898,-5669.467,10307.803,-6695.692
17.940552,251,2054,49,-2,-1,0,-9230.809,-5669.490,10307.867,-6695.697,205,-284,-320
17.960541,259,2053,91,-2,-2,-1,-9230.759,-5669.436,10307.819,-6695.885
17.980530,264,2047,41,-3,-1,0,-9230.714,-5669.630,10307.857,-6695.724
18.000489,244,2064,48,-3,-1,0,-9230.669,-5669.504,10308.000,-6695.673
18.020478,255,2052,52,0,1,-1,-9230.551,-5669.520,10307.987,-6695.841
18.040497,251,2049,72,-3,-2,2,-9230.528,-5669.535,10307.986,-6695.864,212,-274,-327
18.060486,250,2054,57,-4,-1,0,-9230.584,-5669.520,10307.982,-6695.805
18.080506,246,2051,100,0,-2,-1,-9230.755,-5669.616,10307.844,-6695.700
18.100434,252,2045,79,-2,-2,-2,-9230.726,-5669.537,10307.949,-6695.644
18.120423,248,2056,80,-2,-1,0,-9230.701,-5669.439,10308.074,-6695.569
18.140473,262,2038,39,-2,-1,1,-9230.886,-5669.358,10307.981,-6695.527,213,-285,-316,100064,28660
18.160401,268,2057,68,0,0,0,-9231.038,-5669.127,10307.982,-6695.511
18.180359,267,2047,61,-1,-1,0,-9230.899,-5669.095,10308.059,-6695.612
18.200348,258,2051,61,0,0,0,-9230.811,-5669.134,10307.991,-6695.805
18.220368,265,2047,79,-2,-1,1,-9230.829,-5669.037,10308.013,-6695.828
18.240326,257,2045,68,-1,-2,1,-9230.754,-5669.046,10308.128,-6695.747,209,-292,-326
18.260315,258,2043,68,-3,-1,1,-9230.657,-5668.920,10308.187,-6695.895
18.280304,265,2031,62,-2,-1,1,-9230.719,-5668.992,10308.120,-6695.853
18.300293,264,2065,57,-1,-2,-3,-9230.693,-5668.974,10308.188,-6695.800
18.320282,257,2033,45,-2,-1,1,-9230.743,-5669.039,10308.189,-6695.674
18.340271,249,2037,65,-2,-1,-1,-9230.709,-5669.086,10308.297,-6695.514,200,-279,-322
18.360261,249,2065,65,-2,-2,-1,-9230.735,-5669.023,10308.362,-6695.431
18.380250,238,2040,72,0,-1,0,-9230.834,-5668.878,10308.277,-6695.549
18.400239,249,2055,71,0,0,0,-9230.836,-5668.802,10308.321,-6695.542
18.420228,256,2063,43,-2,-1,1,-9230.848,-5668.682,10308.316,-6695.635
18.440217,259,2048,98,-3,-1,-1,-9230.801,-5668.728,10308.307,-6695.675,211,-288,-321
18.460206,262,2043,74,-1,-1,-2,-9230.866,-5668.680,10308.233,-6695.741
18.480164,240,2049,70,-2,-3,-2,-9230.933,-5668.745,10308.190,-6695.659
18.500153,262,2038,70,0,1,-2,-9230.974,-5669.016,10308.045,-6695.596
18.520142,246,2058,56,-1,-1,-2,-9230.982,-5668.899,10308.110,-6695.585
18.540131,261,2049,62,-3,-2,0,-9230.988,-5668.955,10308.119,-6695.515,204,-285,-316
18.560120,256,2058,32,-2,-1,1,-9231.046,-5668.821,10308.175,-6695.462
18.580109,257,2039,87,-2,-1,-1,-9230.999,-5668.809,10308.292,-6695.358
18.600098,251,2046,48,-3,-1,1,-9231.049,-5668.919,10308.265,-6695.235
18.620087,252,2049,81,-2,-1,-1,-9230.853,-5668.646,10308.505,-6695.369
18.640107,267,2044,72,-3,-2,2,-9230.956,-5668.575,10308.422,-6695.413,200,-279,-320,100068,28650
18.660065,260,2046,68,0,0,0,-9230.862,-5668.617,10308.461,-6695.447
18.680024,251,2053,91,-2,-1,0,-9230.777,-5668.510,10308.554,-6695.512
18.700013,263,2053,79,0,1,0,-9230.675,-5668.459,10308.594,-6695.634
18.720002,261,2044,91,-1,-1,1,-9230.805,-5668.406,10308.512,-6695.626
18.739991,256,2045,67,-1,-1,-1,-9230.737,-5668.518,10308.564,-6695.545,209,-278,-316
18.759980,251,2044,66,-1,-1,-2,-9230.707,-5668.741,10308.545,-6695.426
18.779969,265,2053,57,-2,-1,0,-9230.550,-5668.836,10308.474,-6695.672
18.799958,258,2038,45,-2,-1,1,-9230.520,-5668.812,10308.480,-6695.726
18.819947,244,2040,77,-2,-1,0,-9230.550,-5668.774,10308.463,-6695.743
18.839905,269,2036,63,0,0,-1,-9230.612,-5668.658,10308.451,-6695.773,203,-270,-324
18.859894,249,2034,74,0,-1,-2,-9230.541,-5668.771,10308.467,-6695.751
18.879883,236,2045,68,-1,-1,1,-9230.392,-5668.860,10308.395,-6695.992
18.899872,268,2040,62,-1,-1,1,-9230.498,-5669.066,10308.289,-6695.836
18.919861,264,2041,77,-1,-1,-2,-9230.518,-5669.056,10308.218,-6695.925
18.939850,244,2048,61,1,0,0,-9230.386,-5669.054,10308.255,-6696.051,211,-283,-319
18.959839,233,2025,68,-1,-2,0,-9230.450,-5669.287,10308.185,-6695.874
18.979828,257,2055,77,-2,-1,-3,-9230.541,-5669.376,10308.121,-6695.771
18.999817,261,2056,66,-1,-1,0,-9230.683,-5669.401,10308.071,-6695.631
19.019776,254,2060,63,0,0,-2,-9230.563,-5669.390,10308.030,-6695.869
19.039795,257,2038,76,0,1,0,-9230.526,-5669.453,10308.047,-6695.841,196,-282,-318
19.059784,254,2044,75,-3,-1,0,-9230.396,-5669.455,10308.173,-6695.826
19.079743,253,2042,85,-2,-1,-1,-9230.500,-5669.582,10308.034,-6695.788
19.099732,253,2043,78,-3,-1,-1,-9230.553,-5669.732,10307.948,-6695.721
19.119721,255,2047,66,-1,-1,-1,-9230.393,-5669.815,10307.952,-6695.864
19.139740,267,2049,76,0,0,-1,-9230.431,-5669.674,10308.055,-6695.772,205,-282,-322
19.159699,240,2049,58,-2,-2,0,-9230.509,-5669.587,10308.098,-6695.672,205,-282,-322,100062,28660
19.179688,250,2049,49,-2,-3,0,-9230.641,-5669.529,10308.050,-6695.613
19.199677,265,2052,88,0,0,1,-9230.560,-5669.490,10308.066,-6695.734
19.219666,261,2051,74,-2,-1,0,-9230.587,-5669.406,10308.048,-6695.794
19.239655,265,2056,90,-2,-1,-1,-9230.496,-5669.463,10308.018,-6695.919,199,-280,-312
19.259644,244,2044,66,-1,-1,1,-9230.490,-5669.339,10308.029,-6696.014
19.279603,259,2047,59,-2,-2,1,-9230.484,-5669.367,10307.991,-6696.057
19.299683,241,2042,58,-1,-1,2,-9230.511,-5669.410,10307.850,-6696.200
19.319581,241,2046,50,0,0,0,-9230.591,-5669.344,10307.865,-6696.124
19.339570,235,2040,77,-2,-2,0,-9230.784,-5669.242,10307.765,-6696.097,204,-283,-323
19.359559,247,2047,87,0,0,0,-9230.834,-5669.340,10307.739,-6695.985
19.379548,272,2052,78,0,0,1,-9230.751,-5669.527,10307.709,-6695.988
19.399537,235,2043,78,-2,-2,1,-9230.641,-5669.490,10307.752,-6696.105
19.419526,263,2052,87,-2,-1,0,-9230.604,-5669.359,10307.760,-6696.255
19.439515,260,2059,40,-2,-1,2,-9230.508,-5669.245,10307.862,-6696.326,204,-288,-312
19.459473,256,2045,74,-2,-2,1,-9230.589,-5669.462,10307.715,-6696.258
19.479462,254,2056,56,-1,-1,-2,-9230.585,-5669.444,10307.733,-6696.249
19.499451,258,2057,61,-2,-1,0,-9230.647,-5669.258,10307.752,-6696.293
19.519440,260,2065,68,-1,-2,1,-9230.721,-5669.058,10307.824,-6696.250
19.539429,257,2037,45,0,-1,2,-9230.733,-5669.030,10307.792,-6696.306,196,-284,-318
19.559418,254,2052,75,1,0,0,-9230.740,-5669.129,10307.742,-6696.290
19.579407,271,2029,81,-2,-2,-1,-9230.670,-5669.270,10307.758,-6696.241
19.599396,249,2055,88,-3,-1,0,-9230.539,-5669.306,10307.892,-6696.186
19.619385,249,2050,81,-3,-1,-2,-9230.521,-5669.398,10307.922,-6696.086
19.639374,245,2045,79,-1,-1,-1,-9230.570,-5669.385,10307.930,-6696.018,199,-276,-326
19.659363,256,2059,96,-1,-2,1,-9230.601,-5669.558,10307.861,-6695.936,199,-276,-326,100068,28660
19.679352,257,2054,50,-1,-1,-1,-9230.680,-5669.775,10307.848,-6695.663
19.699341,256,2040,58,-2,-1,-3,-9230.616,-5669.778,10307.921,-6695.636
19.719300,255,2056,75,-3,-1,1,-9230.554,-5669.747,10307.923,-6695.745
19.739289,265,2044,66,1,0,1,-9230.589,-5669.843,10307.876,-6695.687,200,-272,-318
19.759278,265,2042,63,-3,-1,0,-9230.629,-5669.657,10307.971,-6695.643
19.779267,254,2063,66,-2,-2,0,-9230.644,-5669.761,10307.872,-6695.686
19.799256,253,2049,63,-2,-1,-1,-9230.669,-5669.718,10307.791,-6695.813
19.819245,257,2049,81,0,0,-1,-9230.753,-5669.652,10307.758,-6695.803
19.839234,257,2041,98,-1,-1,0,-9230.670,-5669.642,10307.784,-6695.888,209,-276,-328
19.859223,252,2035,91,-1,-1,1,-9230.548,-5669.563,10307.972,-6695.832
19.879181,260,2051,57,-2,-2,-1,-9230.505,-5669.525,10307.994,-6695.890
19.899170,253,2041,66,-2,-1,1,-9230.510,-5669.389,10307.935,-6696.089
19.919159,270,2045,70,-1,-1,1,-9230.512,-5669.427,10307.818,-6696.236
19.939148,262,2054,42,0,0,1,-9230.497,-5669.224,10307.837,-6696.398,204,-290,-312
19.959137,239,2049,75,-2,-2,1,-9230.451,-5669.169,10307.820,-6696.534
19.979126,255,2039,46,-2,-1,0,-9230.401,-5669.352,10307.766,-6696.530
19.999115,261,2050,61,1,0,2,-9230.331,-5669.386,10307.742,-6696.636
20.019104,246,2052,38,-2,-1,1,-9230.408,-5669.388,10307.618,-6696.719
20.039094,258,2048,67,-1,-1,0,-9230.657,-5669.431,10307.498,-6696.524,197,-292,-314
20.059052,271,2050,71,-1,-2,-2,-9230.678,-5669.391,10307.523,-6696.490
20.079041,257,2038,74,-2,-2,0,-9230.738,-5669.459,10307.545,-6696.317
20.099061,255,2062,48,-3,-2,-1,-9230.799,-5669.375,10307.498,-6696.376
20.119019,256,2043,72,-1,-1,-1,-9230.744,-5669.433,10307.590,-6696.261
20.139008,246,2048,66,-1,-1,1,-9230.813,-5669.375,10307.542,-6696.288,213,-283,-321
20.158997,243,2054,85,-1,-2,0,-9231.007,-5669.258,10307.445,-6696.269,213,-283,-321,100064,28660
20.178986,243,2063,50,0,-1,1,-9230.845,-5669.340,10307.488,-6696.358
20.198975,266,2053,84,-1,-1,1,-9230.830,-5669.646,10307.357,-6696.321
20.218964,248,2051,66,-2,0,0,-9230.706,-5669.547,10307.448,-6696.435
20.238923,246,2033,69,-1,-1,0,-9230.848,-5669.470,10307.305,-6696.525,203,-289,-315
20.258942,264,2049,48,-1,-1,1,-9230.915,-5669.518,10307.260,-6696.461
20.278901,256,2054,74,-1,-1,-1,-9230.820,-5669.656,10307.263,-6696.470
20.298890,267,2061,48,-2,0,2,-9230.917,-5669.757,10307.124,-6696.465
20.318909,252,2039,85,-1,-1,0,-9230.892,-5669.672,10307.163,-6696.512
20.338868,247,2049,68,1,0,0,-9230.985,-5669.806,10307.040,-6696.460,203,-267,-320
20.358857,254,2051,74,0,0,-1,-9230.945,-5669.731,10307.020,-6696.608
20.378846,257,2050,60,0,0,1,-9230.864,-5669.795,10307.081,-6696.571
20.398835,238,2054,74,-4,-1,-1,-9230.806,-5669.779,10307.116,-6696.611
20.418824,254,2076,41,0,0,1,-9230.874,-5669.769,10307.203,-6696.393
20.438813,254,2053,74,-2,-2,-2,-9230.868,-5669.851,10307.125,-6696.452,202,-285,-321
20.458802,252,2055,41,-1,-1,-1,-9230.900,-5669.909,10307.108,-6696.384
20.478760,256,2048,77,-1,-1,0,-9230.910,-5669.888,10307.047,-6696.482
20.498780,251,2044,78,1,0,-1,-9230.928,-5669.849,10306.983,-6696.590
20.518830,251,2048,55,-1,-1,0,-9230.948,-5670.001,10306.991,-6696.421
20.538727,247,2049,60,-2,-2,-1,-9230.909,-5669.982,10307.012,-6696.459,207,-282,-313
20.558716,240,2049,60,-2,-1,-1,-9230.856,-5670.033,10306.947,-6696.587
20.578705,245,2044,84,-1,-1,2,-9230.934,-5669.828,10307.045,-6696.502
20.598694,254,2042,65,-3,-2,1,-9230.861,-5669.636,10307.182,-6696.555
20.618683,252,2063,65,-3,-1,1,-9230.947,-5669.566,10307.117,-6696.596
20.638672,262,2062,59,-2,-2,0,-9230.916,-5669.636,10307.195,-6696.459,206,-276,-312
20.658661,251,2044,87,-3,-2,0,-9230.722,-5669.737,10307.186,-6696.655,206,-276,-312,100064,28660
20.678650,257,2056,31,-3,-1,0,-9230.645,-5669.833,10307.211,-6696.643
20.698609,256,2028,70,-1,-2,2,-9230.691,-5669.705,10307.210,-6696.688
20.718598,260,2050,72,1,0,0,-9230.858,-5669.676,10307.082,-6696.679
20.738587,249,2055,75,2,0,-1,-9230.873,-5669.613,10307.024,-6696.803,206,-278,-319
20.758576,250,2045,92,0,0,1,-9230.825,-5669.632,10306.990,-6696.905
20.778565,259,2041,88,0,1,1,-9230.880,-5669.557,10307.017,-6696.850
20.798554,241,2036,61,-1,-3,1,-9230.758,-5669.424,10307.204,-6696.842
20.818543,247,2050,84,-2,-2,2,-9230.890,-5669.559,10307.172,-6696.596
20.838532,248,2042,55,-1,-1,-2,-9230.826,-5669.506,10307.182,-6696.713,203,-282,-324
20.858521,254,2057,42,-1,-1,0,-9230.760,-5669.550,10307.289,-6696.604
20.878510,266,2052,46,-2,-2,-1,-9230.805,-5669.375,10307.354,-6696.588
20.898499,261,2039,57,-1,-1,1,-9230.696,-5669.319,10307.486,-6696.582
20.918488,257,2039,60,-2,-1,0,-9230.744,-5669.396,10307.467,-6696.480
20.938447,258,2053,48,-2,-1,1,-9230.765,-5669.397,10307.420,-6696.524,207,-277,-327
20.958436,246,2051,57,-2,-2,0,-9230.764,-5669.515,10307.409,-6696.442
20.978425,240,2046,62,0,0,-1,-9230.853,-5669.512,10307.343,-6696.424
20.998414,260,2040,51,-2,-1,0,-9230.788,-5669.560,10307.483,-6696.258
21.018403,246,2044,68,0,-1,1,-9230.825,-5669.494,10307.559,-6696.145
21.038422,255,2042,60,-3,-3,-2,-9230.940,-5669.336,10307.469,-6696.258,198,-279,-313
21.058381,251,2054,55,0,0,1,-9230.960,-5669.345,10307.433,-6696.278
21.078370,249,2043,77,-2,-2,0,-9230.943,-5669.443,10307.462,-6696.175
21.098359,253,2062,79,-2,-1,-2,-9231.054,-5669.449,10307.512,-6695.940
21.118348,259,2066,90,-1,-1,-1,-9230.989,-5669.565,10307.496,-6695.955
21.138306,270,2043,53,-1,-1,2,-9230.999,-5669.527,10307.536,-6695.913,203,-282,-311
21.158295,269,2045,78,-2,-2,0,-9230.934,-5669.521,10307.542,-6695.998,203,-282,-311,100063,28660
21.178284,244,2050,79,-2,-1,0,-9230.819,-5669.667,10307.436,-6696.197
21.198273,244,2047,78,-1,-1,0,-9230.907,-5669.746,10307.441,-6696.000
21.218262,244,2049,82,-2,-2,-2,-9230.792,-5669.791,10307.535,-6695.976
21.238251,255,2053,84,-1,-1,0,-9230.618,-5669.801,10307.643,-6696.041,202,-288,-326
21.258210,255,2054,45,-4,-1,3,-9230.634,-5669.770,10307.674,-6695.999
21.278199,255,2056,53,-2,-2,-1,-9230.638,-5669.614,10307.738,-6696.025
21.298188,255,2054,69,0,0,0,-9230.718,-5669.519,10307.809,-6695.887
21.318207,243,2055,52,-2,-3,1,-9230.832,-5669.480,10307.753,-6695.848
21.338166,238,2060,53,-1,-3,0,-9230.962,-5669.343,10307.648,-6695.948,212,-274,-318
21.358155,254,2060,71,0,1,0,-9230.931,-5669.343,10307.657,-6695.976
21.378144,239,2041,74,1,0,1,-9230.986,-5669.283,10307.680,-6695.916
21.398133,258,2043,60,-3,-1,-1,-9231.112,-5669.326,10307.577,-6695.864
21.418122,258,2047,48,-2,-1,0,-9231.199,-5669.261,10307.577,-6695.798
21.438111,258,2048,63,-1,-1,0,-9231.217,-5669.211,10307.506,-6695.925,206,-271,-319
21.458100,244,2047,69,-1,-1,1,-9231.337,-5669.130,10307.472,-6695.882
21.478058,252,2038,79,-2,-1,-1,-9231.246,-5669.249,10307.473,-6695.904
21.498078,243,2051,78,-1,-1,1,-9231.294,-5669.263,10307.347,-6696.020
21.518067,266,2050,65,0,0,1,-9231.503,-5669.302,10307.148,-6696.005
21.538056,248,2051,48,1,0,-2,-9231.477,-5669.422,10307.155,-6695.928,198,-274,-320
21.558014,254,2067,53,-1,-1,0,-9231.504,-5669.447,10307.013,-6696.089
21.578034,268,2058,72,0,0,0,-9231.526,-5669.523,10307.048,-6695.941
21.597992,252,2049,77,-1,-1,-1,-9231.523,-5669.551,10306.970,-6696.041
21.617981,249,2045,66,-1,-1,0,-9231.490,-5669.512,10307.048,-6696.001
21.637970,258,2047,88,-3,-2,1,-9231.532,-5669.358,10307.110,-6695.976,199,-280,-319
21.657959,233,2047,81,0,0,0,-9231.586,-5669.385,10307.081,-6695.923,199,-280,-319,100063,28660
21.677948,254,2042,37,-1,-2,1,-9231.514,-5669.328,10307.126,-6696.002
21.697938,255,2057,61,-2,-2,-1,-9231.663,-5669.275,10307.066,-6695.935
21.717896,239,2072,56,-2,-3,-1,-9231.758,-5669.356,10306.993,-6695.846
21.737946,254,2041,52,-3,-1,-1,-9231.674,-5669.271,10307.083,-6695.896,202,-280,-323
21.757874,260,2049,79,-1,-1,1,-9231.784,-5669.272,10307.032,-6695.823
21.777863,254,2058,72,-2,-1,-1,-9231.904,-5669.298,10306.973,-6695.726
21.797852,261,2051,66,-2,-1,1,-9231.926,-5669.319,10306.940,-6695.728
21.817841,247,2041,42,-2,-3,1,-9232.034,-5669.185,10306.881,-6695.785
21.837830,250,2039,66,-1,-1,-1,-9232.095,-5669.170,10306.863,-6695.740,212,-282,-313
21.857819,270,2044,82,-2,-1,0,-9232.039,-5669.194,10306.797,-6695.898
21.877808,270,2049,56,-1,-1,1,-9232.014,-5669.279,10306.873,-6695.744
21.897767,245,2055,51,-1,-2,-1,-9232.084,-5669.284,10306.821,-6695.723
21.917786,251,2049,50,0,0,-1,-9232.196,-5669.347,10306.733,-6695.651
21.937775,250,2059,40,0,1,-2,-9232.274,-5669.403,10306.614,-6695.679,196,-277,-308
21.957734,238,2048,69,-2,-2,-1,-9232.248,-5669.284,10306.718,-6695.655
21.977723,258,2051,80,-2,-1,1,-9232.327,-5669.305,10306.661,-6695.617
21.997742,249,2039,63,0,0,-2,-9232.369,-5669.198,10306.630,-6695.697
22.017701,246,2046,63,-2,-2,1,-9232.436,-5669.240,10306.622,-6695.582
22.037690,255,2043,81,-2,-1,0,-9232.417,-5669.173,10306.653,-6695.618,207,-279,-315
22.057679,262,2034,72,-3,-1,1,-9232.309,-5669.211,10306.693,-6695.672
22.077668,243,2055,62,-1,-1,-1,-9232.252,-5669.259,10306.820,-6695.515
22.097657,268,2047,79,-2,-2,0,-9232.135,-5669.262,10306.839,-6695.644
22.117646,257,2038,62,-1,-1,-1,-9232.147,-5669.477,10306.715,-6695.636
22.137635,235,2057,48,-2,0,-1,-9232.164,-5669.536,10306.616,-6695.715,204,-280,-316
22.157593,250,2047,70,-2,-1,0,-9232.313,-5669.452,10306.589,-6695.623,204,-280,-316,100068,28660
22.177582,254,2044,91,-1,-1,-1,-9232.235,-5669.554,10306.553,-6695.699
22.197571,242,2049,72,0,1,-1,-9231.980,-5669.634,10306.704,-6695.750
22.217560,266,2044,90,-3,0,0,-9231.865,-5669.711,10306.786,-6695.716
22.237549,268,2042,69,-3,-1,1,-9231.889,-5669.791,10306.717,-6695.724,203,-282,-318
22.257538,272,2042,43,0,-1,-1,-9231.788,-5669.812,10306.760,-6695.778
22.277527,254,2044,63,-1,-1,1,-9231.810,-5669.960,10306.659,-6695.777
22.297486,269,2060,67,-3,-1,-1,-9231.700,-5669.825,10306.801,-6695.826
22.317475,265,2052,67,-2,-1,0,-9231.650,-5669.795,10306.729,-6696.030
22.337464,257,2045,78,-1,-1,1,-9231.708,-5669.604,10306.719,-6696.127,204,-290,-321
22.357483,256,2051,74,-1,-1,0,-9231.763,-5669.555,10306.758,-6696.034
22.377442,257,2037,61,0,-1,0,-9231.689,-5669.628,10306.680,-6696.193
22.397431,260,2037,66,-1,-1,0,-9231.775,-5669.436,10306.800,-6696.053
22.417420,246,2053,58,-1,-3,1,-9231.763,-5669.583,10306.832,-6695.896
22.437409,262,2054,47,-1,-1,0,-9231.942,-5669.516,10306.689,-6695.926,205,-282,-324
22.457398,264,2038,67,0,0,1,-9232.026,-5669.554,10306.535,-6696.015
22.477387,251,2032,76,-1,-1,0,-9232.131,-5669.548,10306.461,-6695.989
22.497376,262,2043,49,-2,-2,3,-9232.122,-5669.535,10306.487,-6695.972
22.517334,266,2068,66,-1,-1,-2,-9232.204,-5669.482,10306.459,-6695.948
22.537354,260,2050,60,-1,-1,-1,-9232.267,-5669.405,10306.447,-6695.944,207,-279,-318
22.557343,243,2054,47,-1,-2,0,-9232.290,-5669.290,10306.566,-6695.826
22.577302,251,2055,68,-1,-1,1,-9232.240,-5669.403,10306.589,-6695.765
22.597352,268,2050,59,-3,-1,1,-9232.158,-5669.266,10306.604,-6695.970
22.617280,256,2045,77,0,-1,1,-9232.148,-5669.158,10306.590,-6696.097
22.637269,251,2053,87,-1,-1,2,-9232.177,-5669.185,10306.510,-6696.157,206,-283,-316
22.657258,264,2039,57,-3,-1,0,-9232.079,-5669.032,10306.642,-6696.219,206,-283,-316,100067,28660
22.677247,263,2038,45,-1,-1,1,-9231.997,-5669.032,10306.666,-6696.295
22.697205,265,2058,70,0,0,1,-9232.008,-5669.122,10306.571,-6696.350
22.717194,244,2059,70,-1,0,-2,-9231.855,-5668.971,10306.688,-6696.509
22.737214,259,2047,74,-2,-1,2,-9231.851,-5668.990,10306.712,-6696.461,203,-284,-320
22.757172,263,2059,67,-2,-1,0,-9231.786,-5669.023,10306.717,-6696.514
22.777161,263,2055,65,-2,-1,0,-9231.779,-5668.977,10306.666,-6696.642
22.797150,265,2046,67,-2,-1,-1,-9231.777,-5669.153,10306.588,-6696.615
22.817139,250,2034,89,-1,-2,-2,-9231.853,-5669.212,10306.572,-6696.486
22.837128,266,2036,63,-1,-2,1,-9231.900,-5669.092,10306.611,-6696.463,205,-284,-320
22.857117,252,2038,43,-2,-2,-1,-9232.024,-5668.939,10306.604,-6696.432
22.877106,242,2053,75,0,0,1,-9232.172,-5668.975,10306.386,-6696.533
22.897095,255,2046,63,-1,-1,-2,-9232.100,-5669.054,10306.409,-6696.531
22.917084,257,2052,42,1,0,0,-9232.062,-5668.976,10306.422,-6696.629
22.937043,270,2050,60,-2,-1,1,-9232.066,-5669.045,10306.302,-6696.749,205,-286,-324
22.957123,272,2056,74,0,0,0,-9232.161,-5669.096,10306.228,-6696.689
22.977021,248,2048,53,-1,-1,0,-9232.203,-5669.205,10306.183,-6696.608
22.997010,259,2045,69,-1,-1,-1,-9232.010,-5669.470,10306.083,-6696.803
23.016999,266,2055,60,-2,0,0,-9232.089,-5669.260,10306.148,-6696.772
23.037049,258,2038,53,-2,-2,0,-9231.988,-5669.303,10306.248,-6696.721,210,-279,-318
23.056977,246,2042,55,-3,-2,0,-9231.883,-5669.507,10306.171,-6696.812
23.076966,234,2054,62,0,1,-1,-9232.011,-5669.692,10305.910,-6696.881
23.096955,254,2061,80,1,0,-1,-9232.111,-5669.774,10305.842,-6696.778
23.116944,253,2042,66,-1,-1,0,-9232.042,-5669.798,10305.887,-6696.784
23.136933,243,2046,80,-2,-1,2,-9231.923,-5669.740,10305.983,-6696.849,207,-286,-329
23.156891,251,2037,60,-2,-1,1,-9231.865,-5669.806,10306.051,-6696.769,207,-286,-329,100065,28660
23.176880,269,2049,47,-2,-1,0,-9231.853,-5669.853,10306.077,-6696.706
23.196869,260,2040,63,-2,-1,1,-9231.847,-5669.693,10306.149,-6696.738
23.216858,250,2059,61,-2,-1,1,-9231.805,-5669.711,10306.263,-6696.605
23.236847,268,2043,74,0,-1,0,-9231.788,-5669.819,10306.198,-6696.638,209,-288,-309
23.256836,258,2051,32,-2,-1,1,-9231.865,-5669.770,10306.138,-6696.665
23.276825,255,2039,42,-1,-1,0,-9231.931,-5669.732,10306.081,-6696.694
23.296814,250,2040,49,-3,-1,0,-9232.205,-5669.663,10305.974,-6696.539
23.316803,243,2042,50,1,-1,-2,-9232.526,-5669.616,10305.760,-6696.465
23.336762,239,2057,92,0,0,-3,-9232.636,-5669.676,10305.614,-6696.488,206,-285,-321
23.356751,246,2056,49,-2,-1,1,-9232.779,-5669.577,10305.530,-6696.505
23.376740,246,2041,81,0,0,0,-9232.703,-5669.645,10305.542,-6696.533
23.396729,260,2057,60,-3,-1,2,-9232.697,-5669.724,10305.372,-6696.736
23.416718,249,2058,75,-1,-1,-1,-9232.677,-5669.734,10305.432,-6696.662
23.436707,264,2045,58,-1,-1,-2,-9232.566,-5669.682,10305.476,-6696.791,209,-283,-323
23.456696,265,2056,50,-1,-1,1,-9232.619,-5669.691,10305.376,-6696.865
23.476685,248,2054,76,1,0,-1,-9232.802,-5669.700,10305.261,-6696.782
23.496674,266,2048,37,-1,-1,-1,-9232.736,-5669.944,10305.280,-6696.637
23.516663,251,2046,75,-3,-1,-1,-9232.816,-5669.669,10305.301,-6696.727
23.536652,240,2045,69,-3,-2,0,-9232.735,-5669.877,10305.238,-6696.759,207,-284,-318
23.556611,267,2056,76,-1,0,-1,-9232.717,-5670.064,10305.178,-6696.719
23.576600,262,2040,80,-2,-1,-1,-9232.633,-5670.169,10305.142,-6696.800
23.596589,262,2051,75,0,0,1,-9232.617,-5669.992,10305.132,-6696.989
23.616578,250,2049,57,-1,-1,0,-9232.678,-5670.131,10304.975,-6697.027
23.636567,252,2059,75,-2,-1,-1,-9232.657,-5669.990,10305.063,-6697.042,192,-278,-319
23.656556,246,2047,76,-2,-2,-1,-9232.550,-5669.984,10305.177,-6697.018,192,-278,-319,100062,28670
23.676545,246,2043,71,-3,-2,0,-9232.562,-5670.125,10305.122,-6696.966
23.696534,268,2046,65,-2,-1,-1,-9232.692,-5669.994,10305.052,-6697.006
23.716523,260,2034,81,-2,-3,1,-9232.864,-5670.036,10304.906,-6696.958
23.736481,256,2032,86,-2,-2,-1,-9232.752,-5670.139,10304.997,-6696.886,206,-285,-323
23.756470,272,2043,80,0,1,0,-9232.610,-5670.291,10304.990,-6696.964
23.776459,254,2045,77,-1,-1,1,-9232.566,-5670.202,10305.078,-6696.964
23.796448,235,2047,82,-2,-1,-1,-9232.536,-5670.286,10305.059,-6696.964
23.816437,241,2051,57,-2,0,0,-9232.687,-5670.205,10304.969,-6696.964
23.836426,254,2048,36,-1,-2,0,-9232.866,-5670.008,10304.882,-6697.016,203,-274,-327
23.856415,274,2039,75,0,0,0,-9232.892,-5670.176,10304.811,-6696.948
23.876404,253,2037,61,-3,-1,0,-9233.019,-5670.179,10304.707,-6696.930
23.896393,254,2047,51,0,0,-1,-9233.121,-5670.179,10304.629,-6696.910
23.916382,266,2046,58,0,-1,-1,-9233.011,-5670.265,10304.649,-6696.958
23.936371,252,2035,57,-1,0,1,-9232.903,-5670.306,10304.636,-6697.091,215,-282,-322
23.956330,250,2035,48,-1,0,2,-9232.891,-5670.350,10304.561,-6697.185
23.976349,240,2062,43,-2,-2,0,-9232.994,-5670.385,10304.577,-6696.990
23.996308,252,2039,75,-1,-2,0,-9232.963,-5670.555,10304.493,-6697.018
24.016297,245,2049,47,1,0,-1,-9233.003,-5670.415,10304.467,-6697.122
24.036316,268,2048,51,1,0,1,-9233.078,-5670.388,10304.474,-6697.030,206,-271,-321
24.056244,246,2048,59,-3,-2,1,-9233.169,-5670.304,10304.503,-6696.932
24.076233,237,2046,69,0,0,-1,-9233.210,-5670.331,10304.421,-6696.978
24.096222,252,2037,55,1,0,-1,-9233.117,-5670.391,10304.424,-6697.051
24.116211,259,2046,53,-1,-1,0,-9233.205,-5670.270,10304.387,-6697.089
24.136200,257,2052,56,0,-1,1,-9233.245,-5670.236,10304.327,-6697.154,215,-286,-322
24.156189,250,2059,59,0,0,2,-9233.324,-5670.347,10304.312,-6696.975,215,-286,-322,100070,28660
24.176240,262,2049,88,-1,-1,-1,-9233.455,-5670.299,10304.269,-6696.900
24.196137,244,2055,63,-1,-1,0,-9233.276,-5670.376,10304.353,-6696.954
24.216126,262,2056,56,-1,-1,1,-9233.184,-5670.396,10304.256,-6697.212
24.236115,252,2052,89,-1,0,1,-9233.113,-5670.408,10304.333,-6697.181,207,-291,-324
24.256104,255,2059,87,-2,-2,-1,-9233.087,-5670.332,10304.401,-6697.178
24.276093,246,2040,68,0,0,2,-9233.217,-5670.308,10304.270,-6697.220
24.296082,242,2053,89,0,-1,0,-9233.184,-5670.347,10304.254,-6697.257
24.316132,263,2059,56,-2,-1,-1,-9233.090,-5670.418,10304.390,-6697.118
24.336030,254,2034,70,-4,-2,0,-9232.928,-5670.330,10304.548,-6697.173,204,-278,-323
24.356019,259,2050,62,-3,-1,3,-9232.833,-5670.447,10304.593,-6697.135
24.376038,249,2027,57,-1,-1,-1,-9232.897,-5670.465,10304.550,-6697.097
24.396027,257,2047,35,-1,-1,0,-9232.805,-5670.485,10304.552,-6697.205
24.416047,268,2057,72,-2,-1,-1,-9232.930,-5670.368,10304.447,-6697.292
24.435975,250,2033,77,1,0,0,-9232.837,-5670.490,10304.520,-6697.205
24.455964,257,2050,63,-3,-2,-2,-9232.736,-5670.583,10304.595,-6697.150,203,-279,-315
24.475953,241,2037,84,-1,-1,0,-9232.716,-5670.553,10304.585,-6697.218
24.495942,244,2039,67,-2,-3,2,-9232.725,-5670.455,10304.590,-6697.280
24.515931,254,2045,68,-2,-1,1,-9232.835,-5670.444,10304.463,-6697.334
24.535920,265,2041,91,-1,-1,0,-9232.769,-5670.441,10304.538,-6697.312
24.555878,269,2048,67,0,0,0,-9232.565,-5670.635,10304.615,-6697.311,209,-288,-323
24.575867,258,2054,68,-3,-1,0,-9232.503,-5670.478,10304.712,-6697.381
24.595856,258,2043,71,1,0,0,-9232.552,-5670.633,10304.528,-6697.466
24.615845,235,2049,55,0,1,0,-9232.689,-5670.643,10304.418,-6697.436
24.635834,254,2045,68,-1,-1,-2,-9232.702,-5670.648,10304.354,-6697.512
24.655823,252,2040,59,-1,0,1,-9232.649,-5670.623,10304.441,-6697.473,200,-277,-315,100069,28660
24.675812,257,2041,77,-1,-1,-1,-9232.406,-5670.710,10304.642,-6697.425
24.695801,252,2044,57,-4,-1,0,-9232.354,-5670.749,10304.768,-6697.270
24.715790,241,2054,60,-1,-1,1,-9232.441,-5670.602,10304.663,-6697.436
24.735779,249,2051,78,0,0,-1,-9232.454,-5670.525,10304.631,-6697.532
24.755768,244,2044,90,1,0,0,-9232.610,-5670.470,10304.599,-6697.413,203,-284,-324
24.775757,247,2046,47,0,-1,-1,-9232.574,-5670.469,10304.520,-6697.586
24.795746,259,2057,42,-2,-1,1,-9232.532,-5670.425,10304.501,-6697.710
24.815705,258,2040,60,-2,-1,0,-9232.619,-5670.458,10304.430,-6697.670
24.835694,258,2044,55,-2,-1,0,-9232.667,-5670.494,10304.338,-6697.716
24.855683,259,2047,70,-1,-1,2,-9232.569,-5670.390,10304.441,-6697.782,204,-288,-319
24.875702,272,2056,50,-2,-1,0,-9232.632,-5670.491,10304.436,-6697.617
24.895661,251,2038,65,-2,-1,-1,-9232.654,-5670.549,10304.463,-6697.496
24.915650,243,2045,53,-3,-1,0,-9232.639,-5670.346,10304.642,-6697.413
24.935639,256,2039,61,-3,-2,1,-9232.738,-5670.545,10304.577,-6697.207
24.955628,239,2058,57,-1,-2,-1,-9232.898,-5670.537,10304.444,-6697.199,197,-278,-321
24.975617,250,2041,49,1,1,-1,-9232.845,-5670.415,10304.538,-6697.231
24.995606,255,2048,35,-2,-2,1,-9232.807,-5670.456,10304.677,-6697.034
25.015564,265,2045,67,-4,-2,-1,-9232.756,-5670.310,10304.762,-6697.096
25.035615,266,2047,50,-1,-1,0,-9232.783,-5670.167,10304.743,-6697.210
25.055542,249,2053,52,-1,-2,0,-9232.853,-5670.030,10304.651,-6697.370,204,-283,-314
25.075531,247,2031,66,0,1,0,-9232.844,-5669.888,10304.638,-6697.524
25.095521,271,2029,66,1,0,1,-9232.853,-5669.969,10304.549,-6697.579
25.115510,228,2040,62,1,0,-1,-9232.920,-5669.977,10304.535,-6697.502
25.135499,273,2051,67,-2,-1,-1,-9233.000,-5670.027,10304.449,-6697.481
25.155488,250,2038,56,-1,-1,-1,-9233.092,-5670.009,10304.320,-6697.568,205,-274,-322,100069,28660
25.175446,247,2032,88,0,0,0,-9233.266,-5670.017,10304.272,-6697.397
25.195435,261,2044,52,-2,-1,0,-9233.424,-5670.012,10304.181,-6697.323
25.215455,262,2042,43,-1,-2,-1,-9233.314,-5669.847,10304.252,-6697.504
25.235413,238,2059,65,-2,-1,1,-9233.156,-5669.806,10304.409,-6697.516
25.255402,244,2047,77,-1,0,-1,-9233.137,-5669.909,10304.278,-6697.655,206,-280,-319
25.275391,256,2033,77,0,0,1,-9233.033,-5669.878,10304.322,-6697.757
25.295380,253,2031,60,-1,-1,1,-9233.088,-5669.851,10304.297,-6697.744
25.315369,253,2056,48,-1,-2,0,-9233.162,-5669.697,10304.270,-6697.813
25.335328,261,2034,59,-1,-1,1,-9233.342,-5669.506,10304.143,-6697.923
25.355317,248,2052,58,0,-1,1,-9233.440,-5669.442,10304.066,-6697.960,205,-279,-322
25.375336,242,2060,65,-1,-1,1,-9233.620,-5669.379,10303.916,-6697.995
25.395356,270,2053,48,0,0,0,-9233.726,-5669.316,10303.900,-6697.927
25.415284,242,2048,77,0,-1,0,-9233.758,-5669.291,10303.945,-6697.835
25.435273,251,2036,65,-4,-1,0,-9233.688,-5669.429,10303.967,-6697.780
25.455262,260,2036,82,-1,-1,0,-9233.766,-5669.438,10303.844,-6697.853,205,-284,-322
25.475251,252,2031,47,0,1,0,-9233.793,-5669.522,10303.747,-6697.896
25.495240,254,2052,47,0,0,0,-9233.815,-5669.759,10303.682,-6697.765
25.515229,262,2057,61,0,0,0,-9233.943,-5669.731,10303.702,-6697.581
25.535218,247,2058,61,-2,-1,-2,-9233.863,-5669.750,10303.754,-6697.596
25.555207,239,2046,80,-1,-1,1,-9233.860,-5669.775,10303.809,-6697.495,206,-278,-312
25.575196,255,2047,84,-2,-2,1,-9233.866,-5669.878,10303.791,-6697.426
25.595185,253,2051,78,-1,-1,-2,-9233.869,-5670.033,10303.714,-6697.408
25.615143,260,2035,84,-3,-1,-1,-9233.879,-5670.104,10303.721,-6697.326
25.635132,245,2035,60,-2,-1,-1,-9233.925,-5670.154,10303.728,-6697.208
25.655121,262,2072,46,-2,-1,1,-9233.817,-5670.103,10303.869,-6697.182,210,-284,-324,100064,28670
25.675110,244,2047,57,0,-1,2,-9233.828,-5669.876,10303.960,-6697.220
25.695099,265,2055,71,-2,-2,1,-9233.821,-5670.005,10303.885,-6697.237
25.715088,259,2054,68,0,1,0,-9234.005,-5669.941,10303.728,-6697.279
25.735077,272,2057,55,-1,-2,0,-9234.016,-5669.929,10303.784,-6697.187
25.755066,266,2048,75,-3,-2,1,-9233.926,-5669.826,10303.772,-6697.417,222,-284,-322
25.775055,245,2045,59,-2,-1,0,-9233.924,-5669.720,10303.906,-6697.302
25.795044,245,2060,36,-2,-1,1,-9233.918,-5669.736,10304.022,-6697.118
25.815003,264,2037,72,-2,-1,0,-9233.993,-5669.511,10304.081,-6697.115
25.834992,236,2040,71,-1,-2,1,-9234.014,-5669.232,10304.154,-6697.210
25.854981,255,2050,49,0,0,0,-9234.022,-5669.172,10304.126,-6697.294,207,-277,-313
25.874970,256,2046,57,-1,-2,-1,-9234.091,-5668.857,10304.188,-6697.370
25.894959,254,2045,51,-1,-1,2,-9234.023,-5669.007,10304.096,-6697.478
25.914948,257,2055,75,-2,-1,0,-9234.092,-5669.095,10304.078,-6697.335
25.934937,279,2045,63,0,0,-2,-9234.100,-5669.060,10304.052,-6697.394
25.954896,249,2058,63,-2,-1,1,-9234.065,-5669.119,10303.997,-6697.478,205,-286,-324
25.974915,248,2046,88,0,0,0,-9234.205,-5669.114,10303.845,-6697.521
25.994904,258,2060,67,0,0,-1,-9234.209,-5669.166,10303.828,-6697.500
26.014893,245,2046,66,1,0,1,-9234.093,-5669.148,10303.844,-6697.649
26.034913,256,2045,52,-2,0,0,-9233.997,-5669.376,10303.794,-6697.667
26.054841,254,2044,66,-2,-1,-1,-9234.101,-5669.381,10303.737,-6697.606,213,-285,-312
26.074830,255,2050,69,-1,-2,-1,-9234.055,-5669.389,10303.785,-6697.589
26.094819,250,2043,84,-2,-2,0,-9234.043,-5669.348,10303.810,-6697.601
26.114808,254,2068,89,-1,-1,1,-9234.081,-5669.262,10303.749,-6697.717
26.134797,248,2054,76,0,-1,1,-9234.124,-5669.309,10303.663,-6697.749
26.154786,249,2049,41,-1,-1,-2,-9234.062,-5669.404,10303.614,-6697.830,193,-286,-327,100065,28660
26.174775,253,2050,59,0,0,2,-9234.046,-5669.258,10303.658,-6697.907
26.194733,263,2055,50,-1,-1,1,-9234.032,-5669.232,10303.716,-6697.858
26.214753,241,2055,84,-3,-1,0,-9234.028,-5669.115,10303.725,-6697.950
26.234742,265,2048,53,-1,-2,-1,-9233.977,-5669.294,10303.724,-6697.871
26.254700,286,2050,61,-1,0,-1,-9233.767,-5669.374,10303.791,-6697.988,200,-284,-324
26.274689,259,2049,85,-2,-1,0,-9233.868,-5669.354,10303.769,-6697.901
26.294678,255,2049,61,-3,-2,-1,-9233.654,-5669.421,10303.814,-6698.071
26.314667,262,2042,68,-1,0,3,-9233.683,-5669.231,10303.825,-6698.174
26.334656,253,2056,74,0,0,0,-9233.733,-5669.246,10303.756,-6698.199
26.354645,244,2050,58,-2,-1,0,-9233.891,-5669.210,10303.619,-6698.222,209,-271,-319
26.374604,261,2050,70,-1,-1,-1,-9233.989,-5669.256,10303.608,-6698.064
26.394623,251,2047,27,-1,-2,-1,-9233.999,-5669.074,10303.728,-6698.020
26.414582,259,2058,67,-2,-2,0,-9234.028,-5669.176,10303.707,-6697.926
26.434571,255,2066,71,-2,-1,0,-9234.201,-5669.231,10303.595,-6697.814
26.454560,256,2052,57,0,-1,-3,-9234.243,-5669.160,10303.627,-6697.767,200,-286,-315
26.474549,262,2045,81,0,0,-1,-9234.330,-5669.048,10303.645,-6697.713
26.494538,242,2039,37,-2,-3,0,-9234.387,-5668.996,10303.731,-6697.547
26.514527,251,2036,68,-2,-3,0,-9234.343,-5669.085,10303.772,-6697.470
26.534516,254,2043,57,-2,-2,-1,-9234.329,-5669.072,10303.729,-6697.565
26.554505,243,2045,80,-1,-1,-1,-9234.160,-5669.007,10303.787,-6697.765,210,-282,-324
26.574494,259,2049,77,-1,0,1,-9234.211,-5669.094,10303.813,-6697.579
26.594483,265,2036,49,-2,-1,0,-9234.005,-5669.194,10303.879,-6697.677
26.614533,267,2050,79,-2,-1,-1,-9234.002,-5669.158,10303.854,-6697.750
26.634430,244,2061,69,-1,-1,1,-9233.879,-5669.222,10303.879,-6697.828
26.654419,264,2051,66,0,1,1,-9233.984,-5669.407,10303.802,-6697.644,210,-279,-322,100067,28660
26.674408,262,2045,53,-2,-1,-2,-9234.006,-5669.422,10303.824,-6697.568
26.694397,258,2060,41,0,0,-2,-9234.046,-5669.688,10303.578,-6697.667
26.714386,261,2045,59,1,1,-1,-9234.082,-5669.920,10303.431,-6697.648
26.734375,244,2059,96,0,0,-3,-9233.989,-5669.954,10303.386,-6697.815
26.754365,249,2038,75,-2,-1,1,-9234.100,-5670.028,10303.339,-6697.672,209,-280,-326
26.774354,243,2059,31,-1,-1,0,-9234.034,-5670.133,10303.311,-6697.718
26.794312,241,2033,55,-2,-1,-1,-9234.078,-5670.125,10303.309,-6697.667
26.814332,258,2053,46,-2,-1,0,-9234.187,-5670.268,10303.195,-6697.571
26.834290,237,2044,68,0,0,-1,-9234.092,-5670.239,10303.221,-6697.686
26.854279,242,2044,61,-2,-1,1,-9234.128,-5670.328,10303.231,-6697.544,204,-285,-323
26.874268,242,2057,86,-1,-1,-1,-9233.932,-5670.436,10303.259,-6697.682
26.894257,259,2049,40,-2,-1,0,-9233.844,-5670.604,10303.291,-6697.612
26.914246,254,2045,39,-1,-1,1,-9233.861,-5670.627,10303.152,-6697.782
26.934235,265,2048,81,-2,-1,1,-9233.789,-5670.651,10303.161,-6697.848
26.954224,262,2056,81,-2,-1,0,-9233.885,-5670.675,10303.117,-6697.762,198,-279,-320
26.974213,265,2041,56,-2,-1,-1,-9233.835,-5670.672,10303.168,-6697.756
26.994172,245,2051,67,-1,-2,0,-9233.915,-5670.551,10303.166,-6697.751
27.014191,262,2049,51,-1,-1,0,-9233.698,-5670.529,10303.276,-6697.899
27.034180,267,2036,84,-1,0,0,-9233.696,-5670.489,10303.188,-6698.071
27.054169,249,2042,72,-2,-1,0,-9233.644,-5670.415,10303.211,-6698.170,210,-286,-318
27.074158,267,2063,95,-1,-2,1,-9233.678,-5670.473,10303.122,-6698.211
27.094147,275,2050,47,0,0,0,-9233.636,-5670.430,10303.133,-6698.287
27.114136,258,2059,90,-1,-1,-1,-9233.550,-5670.401,10303.081,-6698.510
27.134125,239,2054,56,0,0,0,-9233.491,-5670.387,10303.337,-6698.211
27.154114,248,2052,89,-3,-2,0,-9233.453,-5670.510,10303.252,-6698.289,197,-280,-323,100067,28660
27.174103,277,2038,59,-3,-1,1,-9233.352,-5670.428,10303.379,-6698.304
27.194092,254,2048,75,-3,-1,0,-9233.432,-5670.414,10303.278,-6698.360
27.214081,252,2058,26,-1,-2,1,-9233.495,-5670.263,10303.259,-6698.429
27.234070,252,2052,61,0,-1,1,-9233.417,-5670.260,10303.211,-6698.613
27.254029,248,2037,66,-1,0,0,-9233.310,-5670.231,10303.343,-6698.582,212,-286,-320
27.274018,271,2045,65,-2,-2,0,-9233.247,-5670.279,10303.449,-6698.466
27.294007,256,2047,52,-1,-1,2,-9233.174,-5670.273,10303.426,-6698.607
27.313996,254,2051,57,-1,-1,0,-9233.348,-5670.227,10303.334,-6698.548
27.333985,259,2053,90,0,-2,-2,-9233.380,-5670.273,10303.286,-6698.538
27.353974,248,2062,53,0,0,-2,-9233.466,-5670.269,10303.221,-6698.524,209,-278,-316
27.373963,253,2043,91,-2,-2,-2,-9233.620,-5670.290,10303.185,-6698.348
27.393952,250,2043,65,-2,-1,-1,-9233.646,-5670.107,10303.134,-6698.547
27.413910,261,2052,60,0,0,3,-9233.438,-5670.449,10302.983,-6698.775
27.433899,246,2044,66,0,2,1,-9233.291,-5670.422,10303.078,-6698.854
27.453888,264,2060,71,-3,-1,-2,-9233.259,-5670.383,10303.147,-6698.825,200,-277,-320
27.473877,251,2035,99,0,0,1,-9233.307,-5670.270,10303.140,-6698.867
27.493866,248,2039,60,-2,-2,0,-9233.207,-5670.288,10303.216,-6698.873
27.513886,244,2052,71,-1,-1,-1,-9233.369,-5670.313,10303.081,-6698.837
27.533844,256,2069,92,0,0,-2,-9233.319,-5670.297,10303.179,-6698.766
27.553833,262,2050,74,-1,-1,-1,-9233.189,-5670.267,10303.277,-6698.820,202,-285,-328
27.573823,259,2024,60,-2,-1,1,-9233.184,-5670.312,10303.357,-6698.667
27.593812,246,2045,62,0,0,-2,-9233.089,-5670.391,10303.323,-6698.781
27.613801,254,2046,91,-3,-1,0,-9233.114,-5670.363,10303.401,-6698.653
27.633759,261,2058,69,-2,-1,1,-9233.008,-5670.310,10303.539,-6698.631
27.653748,255,2049,69,-4,-2,2,-9233.017,-5670.208,10303.596,-6698.616,206,-283,-323,100069,28660
27.673737,271,2038,69,-2,-1,0,-9233.078,-5670.432,10303.596,-6698.345
27.693726,235,2051,63,-3,-1,-1,-9232.974,-5670.594,10303.635,-6698.289
27.713715,257,2041,63,-3,-2,0,-9233.057,-5670.610,10303.606,-6698.206
27.733704,238,2038,46,-3,-2,-2,-9233.193,-5670.778,10303.468,-6698.088
27.753693,245,2048,60,0,-1,0,-9233.282,-5670.719,10303.360,-6698.184,206,-285,-314
27.773682,263,2042,88,0,0,1,-9233.412,-5670.692,10303.318,-6698.090
27.793671,245,2057,76,-2,-1,-1,-9233.223,-5670.560,10303.535,-6698.129
27.813660,258,2051,72,-1,-1,2,-9233.002,-5670.572,10303.586,-6698.344
27.833710,265,2055,86,-3,-1,1,-9232.995,-5670.480,10303.630,-6698.365
27.853608,249,2051,58,-2,-1,-1,-9232.970,-5670.423,10303.654,-6698.411,206,-278,-321
27.873597,259,2053,52,-1,-1,1,-9232.903,-5670.202,10303.780,-6698.497
27.893586,263,2048,50,-2,-2,1,-9232.847,-5670.349,10303.812,-6698.400
27.913575,258,2029,71,-2,-1,-1,-9232.794,-5670.230,10303.828,-6698.549
27.933564,252,2034,65,-2,-1,0,-9232.643,-5670.114,10304.004,-6698.585
27.953553,239,2041,68,-2,-1,2,-9232.576,-5670.196,10304.038,-6698.556,206,-278,-316
27.973542,250,2045,77,-1,-1,1,-9232.517,-5670.160,10303.998,-6698.729
27.993531,249,2055,61,-2,-1,2,-9232.429,-5670.177,10303.952,-6698.906
28.013520,248,2038,51,0,0,1,-9232.451,-5670.112,10303.974,-6698.898
28.033539,252,2025,52,1,0,1,-9232.493,-5669.926,10303.904,-6699.104
28.053498,251,2055,78,-1,-1,0,-9232.514,-5670.068,10303.802,-6699.112,217,-282,-320
28.073456,249,2052,85,-2,-1,0,-9232.546,-5670.007,10303.651,-6699.350
28.093445,269,2043,43,0,1,-1,-9232.419,-5670.199,10303.684,-6699.314
28.113434,272,2038,47,-2,-1,0,-9232.433,-5670.117,10303.641,-6699.429
28.133423,259,2053,60,1,0,0,-9232.363,-5670.151,10303.575,-6699.600
28.153412,260,2035,72,-1,-1,-1,-9232.356,-5670.115,10303.651,-6699.524,215,-284,-331,100062,28670
28.173401,258,2047,57,-3,-1,1,-9232.444,-5670.030,10303.675,-6699.437
28.193390,260,2037,74,-1,-2,0,-9232.413,-5670.223,10303.583,-6699.456
28.213379,242,2062,77,0,0,-1,-9232.338,-5670.118,10303.747,-6699.398
28.233338,260,2049,79,-2,-2,0,-9232.351,-5670.246,10303.779,-6699.222
28.253327,259,2030,63,-2,-1,-2,-9232.405,-5670.336,10303.717,-6699.165,211,-290,-330
28.273346,245,2049,53,-1,-1,-1,-9232.371,-5670.286,10303.725,-6699.243
28.293305,246,2057,58,-1,-1,-1,-9232.446,-5670.187,10303.758,-6699.173
28.313294,255,2055,76,-2,-3,-1,-9232.545,-5670.181,10303.702,-6699.128
28.333283,256,2033,76,-2,-1,1,-9232.629,-5670.117,10303.666,-6699.121
28.353272,244,2064,65,-1,-1,-2,-9232.676,-5670.192,10303.610,-6699.079,204,-285,-321
28.373261,258,2049,91,0,0,-1,-9232.842,-5670.111,10303.563,-6698.992
28.393250,255,2047,85,-3,-2,-1,-9232.693,-5670.279,10303.747,-6698.772
28.413239,262,2042,56,-2,-1,0,-9232.571,-5670.331,10303.800,-6698.813
28.433228,244,2047,67,0,0,0,-9232.638,-5670.332,10303.780,-6698.753
28.453217,244,2057,59,-1,-1,0,-9232.646,-5670.550,10303.747,-6698.607,203,-284,-318
28.473176,257,2040,61,-3,-1,-1,-9232.608,-5670.528,10303.727,-6698.708
28.493165,253,2034,74,-2,-1,1,-9232.657,-5670.544,10303.727,-6698.628
28.513154,241,2034,75,-1,-2,-2,-9232.650,-5670.543,10303.608,-6698.821
28.533143,274,2059,37,1,1,2,-9232.661,-5670.512,10303.574,-6698.884
28.553132,261,2053,60,-1,-1,-1,-9232.619,-5670.544,10303.558,-6698.939,213,-276,-323
28.573121,261,2040,78,0,0,-2,-9232.523,-5670.497,10303.584,-6699.072
28.593110,256,2051,56,-3,-1,0,-9232.454,-5670.592,10303.628,-6699.018
28.613099,251,2038,89,-1,-1,-1,-9232.383,-5670.635,10303.630,-6699.077
28.633088,256,2048,68,-2,-1,-1,-9232.488,-5670.637,10303.678,-6698.857
28.653077,250,2053,53,-2,-3,-3,-9232.473,-5670.563,10303.767,-6698.803,205,-282,-322,100064,28660
28.673035,252,2047,67,-1,-1,1,-9232.690,-5670.563,10303.646,-6698.691
28.693055,242,2046,62,-1,-1,-1,-9232.660,-5670.460,10303.809,-6698.569
28.713013,262,2039,63,-3,-1,0,-9232.551,-5670.596,10303.831,-6698.569
28.733002,248,2054,69,0,0,1,-9232.592,-5670.615,10303.807,-6698.535
28.752991,248,2063,98,0,0,0,-9232.564,-5670.800,10303.810,-6698.411,209,-283,-319
28.772980,242,2036,51,-3,-1,-2,-9232.395,-5670.960,10303.920,-6698.340
28.792969,254,2055,75,-3,-1,0,-9232.453,-5670.733,10303.966,-6698.382
28.812958,255,2052,53,-2,-2,2,-9232.408,-5670.754,10304.051,-6698.294
28.832947,268,2029,78,-2,-2,0,-9232.388,-5670.693,10304.005,-6698.445
28.852906,249,2043,76,1,1,1,-9232.372,-5670.598,10304.058,-6698.466,207,-274,-318
28.872895,260,2039,74,-2,-3,0,-9232.388,-5670.619,10304.055,-6698.431
28.892884,262,2046,50,-1,-1,-2,-9232.572,-5670.522,10304.028,-6698.300
28.912873,264,2051,76,-2,-2,0,-9232.420,-5670.565,10304.177,-6698.246
28.932862,258,2035,75,-1,-2,0,-9232.456,-5670.650,10304.163,-6698.144
28.952851,251,2055,51,0,-1,-2,-9232.514,-5670.691,10304.023,-6698.244,206,-290,-314
28.972840,246,2051,57,-1,0,-2,-9232.521,-5670.499,10304.084,-6698.304
28.992829,268,2024,66,-1,-2,0,-9232.692,-5670.363,10303.934,-6698.414
29.012818,243,2049,65,0,-2,1,-9232.707,-5670.286,10303.963,-6698.415
29.032776,255,2056,89,1,0,0,-9232.622,-5670.330,10304.050,-6698.361
29.052857,242,2051,90,-2,-1,-1,-9232.560,-5670.642,10303.968,-6698.307,207,-284,-318
29.072754,245,2048,68,-1,-1,-2,-9232.642,-5670.604,10304.040,-6698.115
29.092743,257,2039,68,-1,-3,0,-9232.613,-5670.363,10304.198,-6698.117
29.112732,264,2056,63,-1,-3,0,-9232.718,-5670.466,10303.956,-6698.257
29.132721,272,2059,51,1,0,1,-9232.649,-5670.657,10303.843,-6698.365
29.152710,266,2030,76,0,0,-1,-9232.631,-5670.771,10303.771,-6698.404,205,-272,-313,100062,28660
29.172699,264,2059,63,-1,-2,-1,-9232.590,-5670.668,10303.746,-6698.586
29.192688,268,2040,59,-1,-1,1,-9232.750,-5670.531,10303.737,-6698.495
29.212677,249,2050,76,-1,-2,0,-9232.660,-5670.454,10303.794,-6698.597
29.232667,256,2053,67,-1,0,-1,-9232.524,-5670.637,10303.830,-6698.573
29.252656,237,2044,68,-1,0,-1,-9232.484,-5670.501,10303.933,-6698.584,203,-289,-318
29.272645,272,2042,49,-4,-1,1,-9232.424,-5670.628,10303.897,-6698.615
29.292603,262,2054,69,-1,-2,-1,-9232.409,-5670.585,10303.913,-6698.648
29.312592,245,2055,82,-2,-1,1,-9232.442,-5670.456,10303.919,-6698.703
29.332612,234,2039,66,-1,-2,0,-9232.343,-5670.435,10304.093,-6698.589
29.352570,265,2057,77,-2,-2,1,-9232.313,-5670.479,10304.064,-6698.638,202,-280,-316
29.372559,251,2045,63,-1,-2,0,-9232.281,-5670.508,10304.005,-6698.750
29.392548,260,2044,62,0,1,1,-9232.277,-5670.546,10303.890,-6698.898
29.412537,246,2064,57,-2,-2,-1,-9232.326,-5670.658,10303.753,-6698.947
29.432526,252,2057,63,-2,-1,-1,-9232.375,-5670.679,10303.710,-6698.928
29.452515,254,2048,81,-1,-2,1,-9232.525,-5670.868,10303.620,-6698.700,216,-273,-323
29.472504,254,2041,48,-2,-1,-2,-9232.589,-5670.852,10303.608,-6698.643
29.492463,261,2042,69,-1,-1,-1,-9232.561,-5670.938,10303.608,-6698.609
29.512452,256,2045,70,-2,-2,0,-9232.584,-5670.873,10303.624,-6698.608
29.532441,247,2051,71,-2,-2,-1,-9232.538,-5670.884,10303.607,-6698.688
29.552430,256,2030,60,0,1,2,-9232.438,-5670.910,10303.743,-6698.596,205,-282,-313
29.572419,256,2045,49,-1,-3,2,-9232.364,-5670.826,10303.751,-6698.755
29.592438,244,2044,31,-2,-1,-1,-9232.424,-5670.685,10303.734,-6698.819
29.612397,251,2041,65,0,-1,0,-9232.438,-5670.581,10303.712,-6698.921
29.632386,265,2046,52,-1,-1,0,-9232.333,-5670.712,10303.730,-6698.927
29.652344,252,2048,66,-3,-2,-1,-9232.411,-5670.798,10303.640,-6698.885,203,-284,-324,100065,28670
29.672333,238,2049,75,1,0,0,-9232.463,-5670.710,10303.634,-6698.897
29.692353,258,2032,67,-1,-1,1,-9232.579,-5670.693,10303.705,-6698.643
29.712311,253,2044,75,-1,-1,-1,-9232.675,-5670.598,10303.655,-6698.668
29.732300,249,2048,81,-1,-1,1,-9232.666,-5670.531,10303.738,-6698.610
29.752289,268,2058,77,-1,-1,0,-9232.671,-5670.361,10303.771,-6698.695,207,-284,-311
29.772278,253,2044,80,1,0,1,-9232.685,-5670.466,10303.743,-6698.630
29.792267,261,2053,90,0,0,-2,-9232.476,-5670.427,10303.972,-6698.599
29.812256,248,2065,70,-3,-1,1,-9232.314,-5670.376,10304.125,-6698.630
29.832245,261,2050,82,-3,-1,1,-9232.276,-5670.307,10304.158,-6698.691
29.852234,246,2050,78,-2,-1,-2,-9232.246,-5670.269,10304.125,-6698.816,213,-280,-321
29.872223,256,2030,49,-1,-1,1,-9232.208,-5670.377,10304.078,-6698.848
29.892212,248,2045,55,0,0,0,-9232.047,-5670.430,10304.102,-6698.987
29.912171,250,2051,76,-1,0,1,-9231.998,-5670.594,10304.058,-6698.983
29.932160,264,2044,71,-2,-1,-2,-9232.011,-5670.536,10304.085,-6698.973
29.952149,260,2039,66,0,-1,-1,-9232.126,-5670.386,10304.051,-6698.994,205,-289,-318
29.972168,251,2059,48,0,-2,0,-9232.139,-5670.468,10303.952,-6699.060
29.992127,251,2058,51,-2,-1,-2,-9232.101,-5670.549,10303.902,-6699.120
30.012116,256,2052,40,0,0,-1,-9232.015,-5670.597,10303.894,-6699.211
30.032105,249,2048,50,-2,-1,0,-9232.104,-5670.575,10303.761,-6699.311
30.052033,256,2044,51,1,0,-1,-9232.196,-5670.628,10303.686,-6699.255,209,-278,-321
30.072022,251,2040,63,-2,-1,0,-9232.124,-5670.758,10303.630,-6699.329
30.092011,259,2040,55,-3,-1,-1,-9232.039,-5670.686,10303.679,-6699.433
30.112000,234,2053,76,-2,-1,0,-9232.055,-5670.800,10303.644,-6699.368
30.131989,252,2039,63,-2,-1,-2,-9232.101,-5670.928,10303.679,-6699.143
30.151978,254,2056,82,-3,-1,-1,-9232.150,-5671.030,10303.588,-6699.128,204,-276,-319,100067,28660
30.171967,262,2046,41,-1,-1,-1,-9232.116,-5671.084,10303.568,-6699.161
30.191956,242,2049,50,-1,-1,0,-9232.157,-5671.138,10303.475,-6699.201
30.211945,258,2041,52,-2,-2,-1,-9232.263,-5671.145,10303.390,-6699.179
30.231934,253,2063,52,-1,-1,1,-9232.259,-5671.132,10303.403,-6699.177
30.251923,267,2049,80,-3,-1,-1,-9232.257,-5671.182,10303.482,-6699.016,200,-284,-322
30.271943,247,2059,63,-2,-2,0,-9232.297,-5671.267,10303.593,-6698.718
30.291871,257,2042,76,-2,-2,-1,-9232.403,-5671.375,10303.412,-6698.758
30.311860,263,2025,59,-1,-1,-2,-9232.493,-5671.280,10303.336,-6698.832
30.331849,257,2050,77,-1,0,0,-9232.511,-5670.948,10303.446,-6698.919
30.351838,257,2052,60,0,0,-1,-9232.431,-5670.964,10303.590,-6698.795,210,-279,-311
30.371827,255,2058,70,-3,-3,-1,-9232.498,-5670.981,10303.478,-6698.859
30.391816,241,2053,62,-2,-2,0,-9232.534,-5670.987,10303.454,-6698.841
30.411805,248,2047,70,-2,-2,0,-9232.710,-5671.032,10303.432,-6698.595
30.431794,267,2053,63,-2,-3,-2,-9232.633,-5671.170,10303.546,-6698.410
30.451783,249,2052,74,-3,-1,-1,-9232.655,-5671.044,10303.619,-6698.373,205,-291,-329
30.471772,250,2023,56,-2,-2,0,-9232.555,-5671.132,10303.633,-6698.415
30.491761,244,2063,65,-1,-1,0,-9232.544,-5671.010,10303.505,-6698.731
30.511750,247,2044,79,-1,-1,1,-9232.597,-5671.128,10303.541,-6698.502
30.531708,261,2048,75,-2,-1,-1,-9232.587,-5671.268,10303.571,-6698.352
30.551697,251,2037,68,-2,-1,0,-9232.576,-5671.183,10303.614,-6698.371,202,-278,-321
30.571686,257,2053,65,-3,-1,1,-9232.663,-5671.347,10303.483,-6698.315
30.591675,250,2053,60,0,0,-2,-9232.804,-5671.391,10303.392,-6698.223
30.611664,258,2037,63,-1,-3,-1,-9232.783,-5671.295,10303.383,-6698.347
30.631653,249,2054,71,-2,-1,-1,-9232.772,-5671.118,10303.457,-6698.398
30.651642,256,2054,95,-2,-1,2,-9232.909,-5670.943,10303.525,-6698.252,203,-284,-318,100063,28670
30.671601,250,2048,48,-2,-3,0,-9232.819,-5670.928,10303.657,-6698.188
30.691620,239,2048,74,-1,-1,1,-9232.975,-5671.051,10303.467,-6698.161
30.711579,263,2040,58,1,0,-2,-9233.073,-5670.974,10303.412,-6698.173
30.731598,265,2045,72,-1,-2,-1,-9233.028,-5671.153,10303.273,-6698.299
30.751557,257,2042,77,-1,-1,-1,-9232.957,-5671.158,10303.279,-6698.383,200,-284,-327
30.771546,257,2046,70,-2,-1,1,-9232.901,-5671.051,10303.375,-6698.403
30.791535,260,2049,23,-1,-2,-1,-9232.807,-5671.041,10303.465,-6698.403
30.811524,260,2031,48,-1,-1,1,-9232.905,-5671.222,10303.449,-6698.140
30.831513,255,2023,67,-3,-2,-3,-9232.761,-5671.195,10303.516,-6698.258
30.851471,258,2058,66,-2,-1,-2,-9232.777,-5671.137,10303.479,-6698.342,206,-280,-319
30.871460,252,2043,65,0,0,-1,-9232.815,-5671.340,10303.299,-6698.393
30.891480,266,2045,57,0,0,-1,-9232.582,-5671.412,10303.483,-6698.372
30.911438,240,2046,53,-3,-1,0,-9232.589,-5671.308,10303.511,-6698.407
30.931427,257,2043,69,-2,-1,1,-9232.716,-5671.265,10303.366,-6698.491
30.951417,260,2036,70,1,0,-1,-9232.647,-5671.121,10303.368,-6698.704,199,-278,-314
30.971406,260,2034,74,0,-1,1,-9232.686,-5671.159,10303.282,-6698.753
30.991395,265,2036,56,-1,-1,0,-9232.865,-5671.142,10303.131,-6698.751
31.011384,253,2041,61,-2,-1,-1,-9232.824,-5671.072,10303.078,-6698.948
31.031373,256,2058,56,-1,-2,0,-9232.896,-5671.078,10303.031,-6698.917
31.051514,255,2051,63,-3,-1,0,-9232.964,-5671.127,10303.066,-6698.728,207,-286,-315
31.071351,265,2046,79,-3,-3,-2,-9232.963,-5671.031,10303.139,-6698.698
31.091340,254,2047,65,-2,-1,1,-9232.975,-5670.996,10303.138,-6698.712
31.111329,257,2050,53,-1,-1,-1,-9232.951,-5670.919,10303.162,-6698.773
31.131348,267,2030,37,-1,-2,0,-9232.884,-5670.725,10303.159,-6699.036
31.151307,255,2059,52,1,0,2,-9232.907,-5670.730,10303.139,-6699.030,200,-277,-320,100067,28670
31.171296,259,2044,71,-2,-1,1,-9232.965,-5670.815,10303.027,-6699.051
31.191285,254,2041,75,-1,-1,-1,-9232.992,-5670.849,10302.918,-6699.153
31.211274,259,2060,84,-1,-1,-1,-9232.880,-5670.872,10302.869,-6699.362
31.231263,254,2035,71,0,1,1,-9233.001,-5670.728,10302.798,-6699.426
31.251252,267,2062,60,-1,-2,0,-9232.994,-5670.734,10302.883,-6699.300,202,-280,-321
31.271210,254,2046,86,-2,-2,0,-9232.944,-5670.636,10302.964,-6699.328
31.291230,250,2048,50,-2,-1,1,-9232.875,-5670.478,10303.227,-6699.152
31.311188,250,2044,63,-2,-3,1,-9232.925,-5670.534,10303.101,-6699.228
31.331177,263,2060,96,-1,-2,0,-9232.947,-5670.566,10303.186,-6699.042
31.351166,264,2049,67,-1,-3,-1,-9233.064,-5670.649,10303.027,-6699.054,210,-286,-329
31.371155,245,2031,59,0,0,-1,-9233.046,-5670.675,10303.084,-6698.970
31.391144,262,2042,70,-3,-1,-2,-9233.121,-5670.687,10303.150,-6698.754
31.411133,250,2039,71,-2,-1,0,-9233.171,-5670.670,10303.078,-6698.811
31.431122,267,2045,51,1,0,1,-9233.188,-5670.681,10303.043,-6698.832
31.451111,243,2032,39,-1,-1,-1,-9233.308,-5670.723,10302.906,-6698.841,203,-282,-322
31.471100,256,2044,101,-1,-2,0,-9233.349,-5670.764,10302.845,-6698.843
31.491150,261,2049,67,-1,-1,-2,-9233.406,-5670.822,10302.837,-6698.730
31.511048,264,2050,69,-3,-1,0,-9233.348,-5670.934,10302.873,-6698.659
31.531067,253,2059,48,-1,-1,-2,-9233.266,-5670.935,10302.991,-6698.589
31.551026,275,2041,85,-3,-1,-1,-9233.342,-5670.879,10303.122,-6698.329,200,-286,-327
31.571015,256,2053,36,-3,-1,0,-9233.244,-5670.797,10303.253,-6698.334
31.591004,252,2040,46,-1,-1,-1,-9233.410,-5670.680,10303.228,-6698.241
31.610993,256,2040,56,-1,-2,0,-9233.510,-5670.671,10303.211,-6698.138
31.630982,250,2038,74,-1,-1,-1,-9233.386,-5670.756,10303.237,-6698.196
31.650971,244,2048,76,-1,-1,-1,-9233.343,-5670.901,10303.227,-6698.149,209,-278,-326,100065,28660
31.670960,249,2049,60,1,0,0,-9233.268,-5671.090,10303.184,-6698.157
31.690949,250,2037,52,0,0,0,-9233.297,-5671.101,10303.261,-6697.992
31.710938,263,2048,74,-3,-2,0,-9233.228,-5671.057,10303.391,-6697.922
31.730927,255,2044,55,-2,-1,0,-9233.040,-5671.185,10303.386,-6698.082
31.750886,260,2029,55,-1,0,-1,-9233.005,-5671.191,10303.358,-6698.169,210,-279,-315
31.770875,260,2059,49,0,0,-1,-9233.045,-5671.123,10303.391,-6698.118
31.790864,243,2052,28,-2,-2,2,-9233.161,-5671.132,10303.322,-6698.057
31.810853,256,2062,72,0,-1,0,-9233.092,-5670.961,10303.448,-6698.103
31.830842,261,2045,46,-2,-1,1,-9233.172,-5670.889,10303.352,-6698.201
31.850831,259,2038,76,0,0,-1,-9233.163,-5670.943,10303.205,-6698.394,206,-283,-314
31.870820,245,2064,62,-1,-1,0,-9233.124,-5670.898,10303.183,-6698.520
31.890809,255,2055,69,-2,-1,0,-9233.272,-5670.861,10303.062,-6698.535
31.910798,255,2058,82,-1,-1,-1,-9233.346,-5670.858,10303.002,-6698.526
31.930787,256,2046,46,-2,-1,-1,-9233.446,-5670.759,10302.861,-6698.690
31.950776,258,2037,30,1,0,2,-9233.447,-5670.684,10302.833,-6698.795,204,-283,-319
31.970734,260,2048,56,0,0,0,-9233.470,-5670.774,10302.815,-6698.715
31.990723,272,2051,87,-2,-1,0,-9233.369,-5670.855,10302.820,-6698.779
32.010712,244,2045,51,-1,-1,0,-9233.406,-5670.848,10302.764,-6698.818
32.030701,255,2043,70,0,0,0,-9233.544,-5670.775,10302.675,-6698.829
32.050690,261,2046,55,0,-1,-2,-9233.433,-5671.003,10302.560,-6698.963,205,-279,-315
32.070679,255,2041,41,-2,-1,-1,-9233.499,-5670.997,10302.544,-6698.904
32.090668,253,2050,59,-1,-2,0,-9233.361,-5670.955,10302.576,-6699.080
32.110657,260,2033,96,-3,0,0,-9233.535,-5671.013,10302.362,-6699.120
