;Title, http://www.gcdataconcepts.com, HAM-IMU+alt, MPU9250 BMP280,,,,,,,,,,,,,
;Version,1379, Build date, Jan 12 2018,  SN:CCDC50029F4C138,,,,,,,,,,,,
;Start_time, 2018-06-19, 22:35:50.122,2018-06-19 22:35:50.122,,,,,,,,,,,,,
;Temperature,-999, deg C,  Vbat,4122, mv,,,,,,,,,,,
;MPU SR,200,Hz,  Accel sens,2048,counts/g, Gyro sens,16,counts/dps,  Mag SR,10,Hz,  Mag sens,1666,counts/mT,,
;BMP280 SI,0.5,s ,,,,,,,,,,,,,,
;Deadband,0, counts,,,,,,,,,,,,,,
;DeadbandTimeout,5,sec,,,,,,,,,,,,,,
;Time, Ax, Ay, Az, Gx, Gy, Gz, Qw, Qx, Qy, Qz, Mx, My, Mz, P, T,Date Time
0.008209,186,1533,-1392,-243,-134,-241,-13655.455,5094.559,7473.314,-398.801,114,-298,-481,,,2018-06-19 22:35:50.130
0.008545,134,1553,-1357,-169,-69,-268,-13644.854,5072.554,7509.622,-357.991,,,,,,2018-06-19 22:35:50.131
0.019592,153,1541,-1346,-138,-44,-295,-13637.281,5049.064,7541.26,-310.383,,,,,,2018-06-19 22:35:50.142
0.039581,104,1516,-1383,-98,-64,-317,-13629.482,5027.741,7571.489,-258.877,,,,,,2018-06-19 22:35:50.162
0.05954,190,1485,-1370,-96,-117,-329,-13620.343,5017.204,7596.709,-198.413,,,,,,2018-06-19 22:35:50.182
0.079925,111,1511,-1443,-54,-152,-329,-13612.83,5007.167,7618.058,-140.532,114,-298,-481,,,2018-06-19 22:35:50.202
0.099518,140,1555,-1483,-34,-177,-299,-13601.818,5005.175,7639.859,-82.129,,,,,,2018-06-19 22:35:50.222
0.119507,155,1427,-1367,-76,-205,-287,-13588.406,5011.109,7660.209,-25.13,,,,,,2018-06-19 22:35:50.242
0.139496,183,1455,-1397,-49,-230,-257,-13575.096,5018.316,7679.052,29.308,,,,,,2018-06-19 22:35:50.261
0.159485,239,1351,-1262,-55,-234,-238,-13562.669,5024.396,7696.689,76.544,,,,,,2018-06-19 22:35:50.281
0.17984,167,1270,-1205,-66,-198,-205,-13552.085,5025.164,7714.297,117.403,109,-286,-486,98617,23930,2018-06-19 22:35:50.302
0.199432,171,1295,-1170,-58,-137,-195,-13543.794,5023.747,7729.112,154.488,,,,,,2018-06-19 22:35:50.321
0.219421,240,1337,-1174,-29,-134,-174,-13539.539,5020.892,7737.67,188.187,,,,,,2018-06-19 22:35:50.341
0.23941,204,1279,-1123,10,-85,-152,-13545.694,5004.781,7736.725,211.825,,,,,,2018-06-19 22:35:50.361
0.259399,317,1328,-1196,79,50,-119,-13565.807,4972.771,7721.84,221.415,,,,,,2018-06-19 22:35:50.381
0.279754,10,1298,-1252,165,192,-76,-13599.615,4923.711,7693.72,222.803,106,-283,-482,,,2018-06-19 22:35:50.402
0.299347,-17,1402,-1274,222,266,-72,-13632.654,4883.638,7660.445,231.992,,,,,,2018-06-19 22:35:50.421
0.319366,-9,1298,-1373,254,148,-63,-13663.406,4850.085,7626.418,247.386,,,,,,2018-06-19 22:35:50.441
0.339325,-58,1299,-1441,243,114,-72,-13693.048,4821.633,7590.497,268.444,,,,,,2018-06-19 22:35:50.461
0.359314,-76,1324,-1482,269,104,-102,-13720.032,4796.297,7556.747,295.417,,,,,,2018-06-19 22:35:50.481
0.379669,-12,1379,-1533,247,22,-114,-13742.509,4782.298,7523.087,334.14,95,-289,-467,,,2018-06-19 22:35:50.502
0.399292,-74,1362,-1644,266,-69,-156,-13763.871,4776.896,7485.076,382.364,,,,,,2018-06-19 22:35:50.521
0.41925,-173,1416,-1701,303,-109,-161,-13790.496,4770.243,7437.101,438.115,,,,,,2018-06-19 22:35:50.541
0.439239,-114,1351,-1717,379,-148,-178,-13816.881,4771.278,7383.341,500.403,,,,,,2018-06-19 22:35:50.561
0.459228,-164,1357,-1714,395,-163,-171,-13842.937,4771.847,7329.481,562.777,,,,,,2018-06-19 22:35:50.581
0.479584,40,1234,-1618,411,-168,-184,-13870.109,4774.239,7270.787,630.713,93,-291,-481,,,2018-06-19 22:35:50.602
0.499176,7,1097,-1606,448,-190,-194,-13898.86,4777.11,7207.235,701.515,,,,,,2018-06-19 22:35:50.621
0.519165,-45,1065,-1590,488,-221,-190,-13928.477,4778.488,7141.19,776.163,,,,,,2018-06-19 22:35:50.641
0.539154,-77,1043,-1692,501,-229,-252,-13955.792,4784.989,7073.34,861.994,,,,,,2018-06-19 22:35:50.661
0.559143,-98,925,-1605,490,-310,-287,-13976.19,4802.485,7006.592,972.29,,,,,,2018-06-19 22:35:50.681
0.579498,-95,918,-1547,542,-444,-397,-13989.613,4837.601,6935.7,1104.461,81,-301,-490,,,2018-06-19 22:35:50.701
0.59909,-357,1386,-1596,560,-577,-443,-13989.767,4888.911,6873.448,1255.433,,,,,,2018-06-19 22:35:50.721
0.61911,-344,1554,-1904,507,-748,-521,-13970.067,4970.916,6821.294,1425.695,,,,,,2018-06-19 22:35:50.741
0.639068,-169,1976,-2447,366,-1003,-529,-13933.546,5098.691,6759.24,1614.857,,,,,,2018-06-19 22:35:50.761
0.659057,-54,2275,-2979,509,-1256,-500,-13885.984,5232.365,6711.648,1786.34,,,,,,2018-06-19 22:35:50.781
0.679413,181,2487,-3321,175,-1182,-339,-13827.854,5359.892,6698.306,1905.288,82,-314,-496,98622,23930,2018-06-19 22:35:50.801
0.699035,600,2326,-3136,-24,-1001,-180,-13778.838,5457.26,6698.257,1982.602,,,,,,2018-06-19 22:35:50.821
0.718994,-124,2153,-2563,-185,-788,-151,-13762.96,5492.073,6686.711,2035.039,,,,,,2018-06-19 22:35:50.841
0.738983,273,1831,-2418,129,-100,-257,-13746.309,5516.687,6681.685,2096.587,,,,,,2018-06-19 22:35:50.861
0.758972,295,1458,-2130,-12,-454,-132,-13732.713,5538.158,6681.424,2129.65,,,,,,2018-06-19 22:35:50.881
0.779358,120,1369,-1689,-67,-95,-66,-13734.761,5517.197,6698.869,2116.002,71,-329,-507,,,2018-06-19 22:35:50.901
0.79895,109,1383,-1386,-189,197,34,-13734.019,5492.183,6736.06,2067.264,,,,,,2018-06-19 22:35:50.921
0.818908,186,1268,-1282,-288,184,176,-13730.773,5481.286,6768.2,2012.033,,,,,,2018-06-19 22:35:50.941
0.838897,75,1118,-1202,-283,188,198,-13726.162,5456.391,6816.836,1945.882,,,,,,2018-06-19 22:35:50.961
0.858887,97,1173,-1021,-455,327,183,-13716.205,5447.93,6865.23,1868.106,,,,,,2018-06-19 22:35:50.981
0.879242,-18,1193,-1094,-277,167,331,-13724.033,5438.32,6875.746,1798.651,130,-331,-526,,,2018-06-19 22:35:51.001
0.898865,82,1084,-1035,-130,212,329,-13738.694,5432.295,6867.433,1735.585,,,,,,2018-06-19 22:35:51.021
0.918854,-10,1123,-1059,-37,177,354,-13763.952,5413.067,6848.427,1669.372,,,,,,2018-06-19 22:35:51.041
0.938812,-131,1037,-1162,75,313,329,-13806.972,5373.086,6808.474,1605.488,,,,,,2018-06-19 22:35:51.061
0.958801,-79,1046,-1183,224,415,331,-13859.834,5326.649,6751.514,1544.115,,,,,,2018-06-19 22:35:51.081
0.979187,-153,996,-1274,322,398,354,-13917.379,5279.065,6683.383,1485.215,119,-356,-532,,,2018-06-19 22:35:51.101
0.998779,-144,931,-1291,387,396,357,-13977.879,5232.567,6605.307,1429.854,,,,,,2018-06-19 22:35:51.121
1.018738,-73,956,-1242,420,378,365,-14039.077,5185.201,6524.84,1371.095,,,,,,2018-06-19 22:35:51.141
1.038757,-132,802,-1143,436,413,385,-14105.98,5130.1,6436.248,1309.023,,,,,,2018-06-19 22:35:51.161
1.058716,21,1097,-1149,460,469,405,-14173.729,5081.428,6337.44,1247.713,,,,,,2018-06-19 22:35:51.181
1.079101,155,1292,-1584,584,378,427,-14233.375,5047.422,6239.76,1198.078,87,-343,-512,,,2018-06-19 22:35:51.201
1.098694,11,1437,-2540,403,240,362,-14255.89,5051.312,6193.913,1150.965,,,,,,2018-06-19 22:35:51.221
1.118744,89,1652,-3058,21,-71,350,-14229.504,5110.793,6212.222,1115.677,,,,,,2018-06-19 22:35:51.241
1.138641,359,1990,-3084,-530,-440,269,-14159.048,5199.148,6306.79,1072.404,,,,,,2018-06-19 22:35:51.261
1.158661,304,2177,-2748,-851,-467,216,-14106.846,5240.517,6392.511,1051.238,,,,,,2018-06-19 22:35:51.281
1.179016,13,1924,-2588,-478,-173,-48,-14089.566,5227.297,6439.039,1064.76,105,-346,-523,98623,23940,2018-06-19 22:35:51.301
1.198608,-44,1656,-2149,-187,10,-180,-14075.645,5217.345,6472.543,1094.143,,,,,,2018-06-19 22:35:51.321
1.218597,201,1582,-1834,-176,-185,-186,-14041.568,5248.577,6513.721,1137.396,,,,,,2018-06-19 22:35:51.341
1.238556,331,1423,-1708,-258,-409,-198,-13992.777,5298.605,6568.969,1187.876,,,,,,2018-06-19 22:35:51.361
1.258545,278,1369,-1574,-344,-456,-237,-13942.804,5337.823,6634.11,1236.883,,,,,,2018-06-19 22:35:51.381
1.27893,147,1388,-1390,-376,-328,-284,-13895.141,5357.996,6709.059,1280.973,103,-347,-524,,,2018-06-19 22:35:51.401
1.298523,174,1386,-1254,-422,-273,-301,-13850.154,5381.034,6773.833,1329.782,,,,,,2018-06-19 22:35:51.421
1.318512,71,1290,-1153,-307,-331,-304,-13807.866,5402.489,6831.75,1385.123,,,,,,2018-06-19 22:35:51.441
1.33847,193,1274,-1159,-340,-310,-319,-13752.735,5440.487,6901.541,1437.895,,,,,,2018-06-19 22:35:51.460
1.35849,181,1293,-1216,-404,-411,-284,-13696.605,5480.033,6970.997,1487.578,,,,,,2018-06-19 22:35:51.480
1.378845,238,1376,-1123,-420,-411,-274,-13646.246,5515.077,7031.431,1535.675,119,-332,-509,,,2018-06-19 22:35:51.501
1.398437,225,1320,-1104,-338,-362,-253,-13602.008,5547.412,7083.817,1570.528,,,,,,2018-06-19 22:35:51.520
1.418426,272,1352,-1189,-314,-291,-159,-13562.072,5580.799,7129.328,1591.539,,,,,,2018-06-19 22:35:51.540
1.438385,-127,1340,-1041,-319,-272,-79,-13515.262,5613.181,7193.838,1585.564,,,,,,2018-06-19 22:35:51.560
1.458374,220,1604,-1222,-591,-150,47,-13470.363,5666.875,7238.954,1571.248,,,,,,2018-06-19 22:35:51.580
1.47876,167,1493,-1425,-292,-358,123,-13431.638,5726.976,7266.231,1558.897,120,-323,-510,,,2018-06-19 22:35:51.601
1.498352,179,1443,-1370,-341,-322,187,-13390.588,5787.765,7300.895,1525.223,,,,,,2018-06-19 22:35:51.620
1.518341,80,1548,-1314,-433,-270,284,-13351.093,5840.725,7340.971,1476.42,,,,,,2018-06-19 22:35:51.640
1.53833,127,1490,-1378,-434,-181,268,-13312.36,5892.233,7377.184,1440.572,,,,,,2018-06-19 22:35:51.660
1.558319,182,1517,-1417,-373,-279,209,-13273.151,5941.024,7412.611,1419.976,,,,,,2018-06-19 22:35:51.680
1.578674,204,1447,-1456,-333,-254,117,-13245.394,5973.772,7436.013,1419.412,93,-332,-504,,,2018-06-19 22:35:51.701
1.598266,176,1406,-1345,-170,-205,17,-13231.193,5992.224,7443.322,1435.673,,,,,,2018-06-19 22:35:51.720
1.618255,166,1411,-1454,-31,-189,-45,-13219.811,6010.562,7443.87,1460.81,,,,,,2018-06-19 22:35:51.740
1.638244,108,1501,-1515,2,-214,-58,-13212.09,6032.059,7433.311,1495.412,,,,,,2018-06-19 22:35:51.760
1.658203,30,1456,-1478,85,-269,-65,-13202.115,6065.349,7414.394,1542.042,,,,,,2018-06-19 22:35:51.780
1.678589,16,1468,-1580,129,-382,-72,-13185.488,6114.466,7390.597,1603.346,83,-329,-502,98622,23930,2018-06-19 22:35:51.801
1.698181,46,1603,-1572,135,-517,-98,-13161.548,6175.576,7366.228,1676.319,,,,,,2018-06-19 22:35:51.820
1.71817,30,1731,-1719,135,-595,-112,-13131.855,6241.81,7345.268,1754.034,,,,,,2018-06-19 22:35:51.840
1.738159,126,1849,-1782,98,-631,-125,-13093.251,6315.731,7334.185,1823.037,,,,,,2018-06-19 22:35:51.860
1.758117,205,1872,-2016,-40,-651,-67,-13046.161,6391.243,7341.315,1868.209,,,,,,2018-06-19 22:35:51.880
1.778503,170,1930,-1740,-199,-544,3,-13009.179,6445.949,7357.004,1876.414,99,-311,-503,,,2018-06-19 22:35:51.901
1.798095,70,1976,-1559,-224,-294,119,-12986.668,6482.43,7367.073,1867.139,,,,,,2018-06-19 22:35:51.920
1.818115,142,1870,-1414,-165,-192,143,-12967.211,6510.3,7379.002,1858.276,,,,,,2018-06-19 22:35:51.940
1.838074,107,1668,-1522,-181,-181,99,-12941.487,6542.587,7396.787,1853.498,,,,,,2018-06-19 22:35:51.960
1.858063,206,1649,-1431,-219,-222,67,-12914.031,6569.414,7422.854,1845.875,,,,,,2018-06-19 22:35:51.980
1.878479,115,1658,-1336,-284,-130,45,-12888.345,6584.484,7457.724,1831.098,106,-319,-496,,,2018-06-19 22:35:52.000
1.89801,181,1589,-1314,-308,-105,46,-12860.095,6603.265,7493.887,1814.367,,,,,,2018-06-19 22:35:52.020
1.917999,96,1578,-1327,-317,-98,53,-12830.385,6617.96,7536.208,1795.778,,,,,,2018-06-19 22:35:52.040
1.937988,76,1491,-1286,-372,-101,30,-12793.039,6637.379,7586.644,1778.091,,,,,,2018-06-19 22:35:52.060
1.957977,134,1461,-1182,-422,-132,19,-12755.371,6657.309,7635.687,1764.211,,,,,,2018-06-19 22:35:52.080
1.978332,129,1465,-1132,-369,-137,0,-12723.154,6671.849,7678.479,1756.182,123,-309,-501,,,2018-06-19 22:35:52.100
1.997925,55,1539,-1099,-318,-104,-25,-12692.363,6683.097,7720.818,1750.581,,,,,,2018-06-19 22:35:52.120
2.017914,131,1665,-1162,-322,-126,-37,-12655.408,6702.618,7763.398,1755.175,,,,,,2018-06-19 22:35:52.140
2.037903,204,1738,-1041,-307,-219,-74,-12616.799,6722.585,7805.536,1769.822,,,,,,2018-06-19 22:35:52.160
2.057892,189,1753,-1063,-286,-207,-122,-12584.748,6731.377,7844.317,1792.986,,,,,,2018-06-19 22:35:52.180
2.078247,165,1749,-1161,-195,-159,-179,-12560.913,6730.857,7875.979,1823.028,95,-310,-488,,,2018-06-19 22:35:52.200
2.097839,99,1680,-1308,-141,-138,-185,-12539.188,6731.823,7902.669,1853.26,,,,,,2018-06-19 22:35:52.220
2.117828,240,1815,-1247,-146,-163,-164,-12512.416,6740.058,7932.59,1876.303,,,,,,2018-06-19 22:35:52.240
2.137817,226,1834,-1310,-227,-157,-121,-12486.91,6742.31,7968.05,1887.842,,,,,,2018-06-19 22:35:52.260
2.157806,235,1807,-1405,-236,-85,-114,-12460.734,6742.9,8006.799,1894.729,,,,,,2018-06-19 22:35:52.280
2.178161,349,1808,-1334,-294,-87,-99,-12429.997,6746.968,8051.248,1893.791,99,-309,-482,98620,23930,2018-06-19 22:35:52.300
2.197784,407,1833,-1143,-334,-84,-70,-12403.849,6744.104,8095.287,1887.685,,,,,,2018-06-19 22:35:52.320
2.217743,372,1762,-1030,-272,3,-90,-12389.71,6731.057,8127.385,1889.178,,,,,,2018-06-19 22:35:52.340
2.237732,369,1704,-1070,-147,16,-109,-12382.021,6717.999,8148.092,1896.855,,,,,,2018-06-19 22:35:52.360
2.257721,410,1720,-1060,-112,-5,-90,-12378.027,6704.979,8162.583,1906.664,,,,,,2018-06-19 22:35:52.380
2.278106,324,1728,-1162,-38,38,-115,-12382.023,6681.196,8172.308,1922.483,93,-296,-477,,,2018-06-19 22:35:52.400
2.297668,451,1751,-1289,8,35,-134,-12382.909,6666.95,8178.157,1941.263,,,,,,2018-06-19 22:35:52.420
2.317688,395,1900,-1080,-6,7,-111,-12397.523,6631.589,8181.148,1956.453,,,,,,2018-06-19 22:35:52.440
2.337707,312,1714,-1030,125,200,-165,-12437.531,6564.97,8168.397,1980.328,,,,,,2018-06-19 22:35:52.460
2.357666,314,1581,-1189,333,320,-242,-12494.978,6483.244,8135.487,2022.957,,,,,,2018-06-19 22:35:52.480
2.377991,141,1573,-1314,494,327,-296,-12562.937,6391.558,8089.287,2078.33,88,-291,-477,,,2018-06-19 22:35:52.500
2.397613,226,1407,-1317,543,333,-346,-12618,6309.743,8053.016,2134.847,,,,,,2018-06-19 22:35:52.520
2.417602,207,1467,-1261,387,240,-340,-12654.243,6252.594,8023.747,2197.754,,,,,,2018-06-19 22:35:52.540
2.437561,-23,1443,-1416,405,31,-326,-12694.046,6186.147,7994.559,2261.684,,,,,,2018-06-19 22:35:52.560
2.45755,47,1620,-1426,356,190,-361,-12722.228,6130.149,7973.056,2330.663,,,,,,2018-06-19 22:35:52.580
2.477936,115,1637,-1461,300,22,-362,-12737.77,6089.069,7960.513,2395.435,86,-291,-470,,,2018-06-19 22:35:52.600
2.497528,22,1680,-1521,197,-20,-317,-12753.42,6047.61,7949.745,2452.28,,,,,,2018-06-19 22:35:52.620
2.517517,-22,1559,-1719,162,-2,-284,-12759.966,6020.071,7944.052,2503.89,,,,,,2018-06-19 22:35:52.640
2.537506,46,1582,-1679,111,-60,-273,-12762.621,6005.392,7930.554,2567.587,,,,,,2018-06-19 22:35:52.660
2.557464,-42,1679,-1461,191,-210,-259,-12764.595,5997.887,7910.99,2634.789,,,,,,2018-06-19 22:35:52.679
2.57782,-3,1595,-1580,169,-212,-236,-12759.417,5993.548,7903.628,2691.237,81,-289,-488,,,2018-06-19 22:35:52.700
2.597442,-206,1545,-1462,52,-193,-214,-12753.961,5985.905,7900.891,2741.67,,,,,,2018-06-19 22:35:52.719
2.617431,-62,1519,-1297,47,-111,-205,-12752.665,5971.026,7898.971,2785.331,,,,,,2018-06-19 22:35:52.739
2.63742,-195,1480,-1418,109,-38,-230,-12756.253,5946.52,7899.208,2820.436,,,,,,2018-06-19 22:35:52.759
2.657379,-120,1474,-1277,62,3,-179,-12761.709,5924.777,7894.171,2855.393,,,,,,2018-06-19 22:35:52.779
2.677765,-95,1505,-1397,118,-12,-170,-12766.83,5909.83,7885.152,2888.212,105,-308,-497,98621,23930,2018-06-19 22:35:52.800
2.697357,-148,1516,-1473,105,-62,-115,-12773.414,5902.795,7869.044,2917.273,,,,,,2018-06-19 22:35:52.819
2.717315,-157,1573,-1555,127,-101,-58,-12781.732,5907.892,7841.348,2944.964,,,,,,2018-06-19 22:35:52.839
2.737304,-181,1486,-1503,180,-159,19,-12798.858,5917.437,7796.966,2969.161,,,,,,2018-06-19 22:35:52.859
2.757293,-158,1467,-1584,281,-151,81,-12825.477,5925.859,7738.647,2990.002,,,,,,2018-06-19 22:35:52.879
2.777679,-175,1027,-1868,369,-94,112,-12864.583,5926.086,7666.213,3008.092,111,-316,-503,,,2018-06-19 22:35:52.900
2.797272,-92,1425,-1443,473,-65,154,-12914.984,5924.543,7573.373,3030.252,,,,,,2018-06-19 22:35:52.919
2.81723,-29,1361,-1462,550,-92,174,-12960.933,5933.841,7478.527,3051.362,,,,,,2018-06-19 22:35:52.939
2.837219,-109,1365,-1636,578,-182,232,-13004.795,5969.917,7365.262,3069.809,,,,,,2018-06-19 22:35:52.959
2.857208,-32,998,-1841,592,-312,366,-13052.975,6018.481,7229.591,3092.923,,,,,,2018-06-19 22:35:52.979
2.877685,-281,1470,-1673,816,-317,387,-13091.669,6068.204,7114.522,3099.049,103,-309,-496,,,2018-06-19 22:35:53.000
2.897186,-291,1262,-1871,483,-519,473,-13116.307,6159.445,6980.396,3119.812,,,,,,2018-06-19 22:35:53.019
2.917175,-72,1524,-1514,522,-617,483,-13109.189,6276.44,6889.124,3119.431,,,,,,2018-06-19 22:35:53.039
2.937134,244,1553,-1472,54,-729,528,-13073.738,6408.242,6847.697,3091.324,,,,,,2018-06-19 22:35:53.059
2.957123,139,1325,-1349,-238,-608,532,-13047.47,6501.641,6841.085,3021.123,,,,,,2018-06-19 22:35:53.079
2.977508,248,1201,-1249,-322,-197,548,-13046.505,6550.859,6831.042,2940.621,108,-331,-508,,,2018-06-19 22:35:53.100
2.997101,87,1084,-1340,-151,21,512,-13071.81,6560.579,6807.497,2860.067,,,,,,2018-06-19 22:35:53.119
3.01709,204,1193,-1376,-31,206,485,-13105.765,6559.226,6777.971,2776.692,,,,,,2018-06-19 22:35:53.139
3.037048,325,1026,-1546,12,233,512,-13133.142,6567.708,6753.041,2686.571,,,,,,2018-06-19 22:35:53.159
3.057068,203,1140,-1490,-140,140,555,-13141.199,6589.257,6756.277,2584.323,,,,,,2018-06-19 22:35:53.179
3.077423,330,1409,-1417,-359,122,510,-13131.573,6621.65,6773.74,2503.479,92,-357,-510,,,2018-06-19 22:35:53.199
3.097046,290,1521,-1586,-320,-69,373,-13122.952,6644.439,6787.367,2450.841,,,,,,2018-06-19 22:35:53.219
3.117004,377,1554,-1731,-159,17,232,-13137.916,6656.088,6757.616,2421.097,,,,,,2018-06-19 22:35:53.239
3.136993,372,1518,-1844,131,-14,297,-13167.444,6661.745,6704.603,2392.338,,,,,,2018-06-19 22:35:53.259
3.156982,376,1443,-1997,242,61,322,-13206.459,6657.582,6643.946,2357.852,,,,,,2018-06-19 22:35:53.279
3.177337,384,1480,-1731,247,117,360,-13252.78,6643.547,6579.578,2317.689,86,-339,-500,98620,23930,2018-06-19 22:35:53.299
3.19693,324,1382,-1795,279,190,356,-13302.03,6621.579,6518.158,2271.505,,,,,,2018-06-19 22:35:53.319
3.216919,333,1187,-1778,271,269,373,-13351.178,6595.088,6463.898,2214.567,,,,,,2018-06-19 22:35:53.339
3.236908,283,1133,-1679,178,298,407,-13397.999,6568.707,6417.184,2144.969,,,,,,2018-06-19 22:35:53.359
3.256897,203,1114,-1709,128,322,428,-13437.061,6543.742,6384.967,2071.823,,,,,,2018-06-19 22:35:53.379
3.277252,234,1083,-1662,11,293,396,-13463.619,6526.441,6369.713,1999.68,71,-344,-493,,,2018-06-19 22:35:53.399
3.296844,204,1098,-1640,-100,239,360,-13482.077,6511.97,6366.391,1931.927,,,,,,2018-06-19 22:35:53.419
3.316833,223,1073,-1525,-117,206,304,-13499.771,6495.582,6361.884,1877.625,,,,,,2018-06-19 22:35:53.439
3.336822,241,1030,-1537,-76,195,236,-13518.21,6475.433,6356.184,1833.338,,,,,,2018-06-19 22:35:53.459
3.356811,212,932,-1553,-28,204,192,-13544.027,6445.288,6343.772,1791.53,,,,,,2018-06-19 22:35:53.479
3.377167,150,841,-1496,28,269,201,-13578.414,6407.087,6320.443,1750.238,52,-353,-486,,,2018-06-19 22:35:53.499
3.396759,192,925,-1425,102,318,198,-13614.138,6367.739,6293.186,1714.168,,,,,,2018-06-19 22:35:53.519
3.416748,165,1005,-1453,132,275,170,-13648.599,6331.761,6261.445,1689.464,,,,,,2018-06-19 22:35:53.539
3.436767,98,933,-1635,181,247,135,-13682.742,6292.323,6231.467,1671.369,,,,,,2018-06-19 22:35:53.559
3.456726,25,1015,-1711,156,253,90,-13713.531,6255.652,6203.7,1659.95,,,,,,2018-06-19 22:35:53.579
3.477081,96,993,-1798,183,183,58,-13743.992,6221.726,6169.469,1663.101,50,-349,-488,,,2018-06-19 22:35:53.599
3.496673,88,1080,-1847,235,196,0,-13772.6,6184.092,6140.525,1673.881,,,,,,2018-06-19 22:35:53.619
3.516662,159,1059,-1839,214,132,-43,-13798.403,6147.936,6112.972,1695.279,,,,,,2018-06-19 22:35:53.639
3.536651,103,1025,-1815,235,112,-86,-13832.842,6093.422,6080.967,1726.257,,,,,,2018-06-19 22:35:53.659
3.556701,-132,1243,-1645,304,282,-224,-13871.236,6017.9,6054.798,1774.411,,,,,,2018-06-19 22:35:53.679
3.576996,-100,1198,-1862,269,183,-319,-13883.162,5978.204,6046.542,1842.187,45,-346,-488,,,2018-06-19 22:35:53.699
3.596588,112,1186,-2081,189,1,-384,-13885.758,5954.686,6037.439,1926.706,,,,,,2018-06-19 22:35:53.719
3.616577,45,1324,-2035,226,-131,-406,-13888.437,5926.241,6032.578,2008.584,,,,,,2018-06-19 22:35:53.739
3.636566,70,1418,-2012,118,-53,-425,-13881.733,5895.451,6048.86,2094.722,,,,,,2018-06-19 22:35:53.759
3.656555,258,1369,-1964,43,-107,-534,-13870.122,5868.935,6066.998,2191.412,,,,,,2018-06-19 22:35:53.779
3.67691,38,1372,-1890,85,-152,-559,-13866.025,5825.302,6081.388,2291.584,22,-364,-494,98622,23930,2018-06-19 22:35:53.799
3.696533,-51,1238,-2041,118,-12,-625,-13866.16,5776.074,6089.505,2391.634,,,,,,2018-06-19 22:35:53.819
3.716491,-68,1218,-1989,234,22,-533,-13867.102,5733.507,6095.772,2471.313,,,,,,2018-06-19 22:35:53.838
3.736481,142,1169,-2032,27,30,-411,-13852.081,5704.492,6136.466,2521.475,,,,,,2018-06-19 22:35:53.858
3.75647,-25,1085,-1888,-199,14,-346,-13841.582,5664.78,6184.462,2551.224,,,,,,2018-06-19 22:35:53.878
3.776825,-113,1086,-1914,-225,109,-279,-13833.016,5635.494,6226.556,2560.139,32,-364,-492,,,2018-06-19 22:35:53.899
3.796448,-21,1023,-1760,-219,145,-152,-13820.497,5619.412,6271.765,2552.739,,,,,,2018-06-19 22:35:53.918
3.816437,-14,945,-1692,-317,80,-25,-13811.634,5606.347,6313.272,2526.987,,,,,,2018-06-19 22:35:53.938
3.836395,-38,931,-1635,-286,118,64,-13806.489,5597.753,6347.728,2487.532,,,,,,2018-06-19 22:35:53.958
3.856384,-24,872,-1482,-311,109,156,-13799.213,5597.737,6386.533,2427.898,,,,,,2018-06-19 22:35:53.978
3.87677,-119,962,-1580,-394,164,260,-13796.017,5593.515,6425.16,2352.711,22,-386,-505,,,2018-06-19 22:35:53.999
3.896332,-118,1085,-1356,-342,158,332,-13797.745,5593.36,6450.033,2273.554,,,,,,2018-06-19 22:35:54.018
3.916321,-193,1101,-1497,-313,193,363,-13798.762,5595.448,6477.129,2183.428,,,,,,2018-06-19 22:35:54.038
3.93631,-461,1569,-3076,-316,219,441,-13801.231,5612.85,6493.371,2072.075,,,,,,2018-06-19 22:35:54.058
3.956268,-162,1201,-1604,-466,118,719,-13819.148,5612.913,6481.76,1987.102,,,,,,2018-06-19 22:35:54.078
3.976623,-5,1096,-1514,-243,-44,496,-13814.407,5658.469,6476.731,1905.586,33,-394,-518,,,2018-06-19 22:35:54.099
3.996246,96,1131,-1416,-222,-123,505,-13815.579,5705.498,6450.643,1844.369,,,,,,2018-06-19 22:35:54.118
4.016235,190,852,-1438,10,-224,477,-13821.961,5752.255,6410.262,1791.351,,,,,,2018-06-19 22:35:54.138
4.036194,235,880,-1640,135,-78,457,-13842.015,5777.863,6358.9,1736.302,,,,,,2018-06-19 22:35:54.158
4.056183,199,1040,-1835,200,19,441,-13864.475,5795.253,6305.555,1693.155,,,,,,2018-06-19 22:35:54.178
4.076568,-353,1173,-1643,22,-93,329,-13894.076,5803.98,6240.896,1659.854,14,-380,-504,,,2018-06-19 22:35:54.199
4.09613,98,1169,-1976,414,38,327,-13919.674,5837.502,6154.482,1650.461,,,,,,2018-06-19 22:35:54.218
4.11615,431,1173,-2255,409,-244,381,-13932.449,5883.799,6086.221,1631.293,,,,,,2018-06-19 22:35:54.238
4.136108,7,1068,-1909,246,-203,442,-13967.34,5889.026,6002.761,1623.297,,,,,,2018-06-19 22:35:54.258
4.156097,33,971,-2086,381,-187,196,-13969.083,5947.468,5942.504,1616.921,,,,,,2018-06-19 22:35:54.278
4.176483,38,911,-2238,219,-366,285,-13976.379,6006.911,5860.894,1631.929,0,-368,-502,98624,23930,2018-06-19 22:35:54.298
4.196075,104,919,-2232,413,-433,254,-13987.762,6069.59,5764.609,1645.391,,,,,,2018-06-19 22:35:54.318
4.216034,16,900,-2111,428,-350,304,-13996.19,6127.969,5683.376,1639.917,,,,,,2018-06-19 22:35:54.338
4.236023,344,1125,-2371,255,-365,369,-13988.482,6201.054,5626.832,1625.879,,,,,,2018-06-19 22:35:54.358
4.256012,332,886,-2388,135,-415,314,-13986.559,6259.972,5566.683,1623.698,,,,,,2018-06-19 22:35:54.378
4.276367,179,842,-2470,237,-344,251,-13991.549,6306.677,5500.978,1623.899,-14,-359,-498,,,2018-06-19 22:35:54.398
4.29599,176,823,-2316,255,-265,269,-13991.18,6357.973,5444.775,1616.456,,,,,,2018-06-19 22:35:54.418
4.315948,441,727,-2276,158,-328,289,-13988.001,6408.843,5395.718,1607.545,,,,,,2018-06-19 22:35:54.438
4.335968,574,680,-2596,142,-313,245,-13985.93,6457.999,5341.556,1609.729,,,,,,2018-06-19 22:35:54.458
4.355926,175,685,-2438,206,-307,192,-13989.11,6487.563,5296.349,1612.585,,,,,,2018-06-19 22:35:54.478
4.376312,275,569,-2291,107,-276,141,-13986.19,6519.2,5264.982,1613.043,-10,-368,-511,,,2018-06-19 22:35:54.498
4.395904,300,707,-2405,69,-138,108,-13979.154,6543.478,5252.401,1616.749,,,,,,2018-06-19 22:35:54.518
4.415893,239,719,-2188,-30,-254,72,-13964.77,6577.203,5246.095,1624.655,,,,,,2018-06-19 22:35:54.538
4.435852,348,630,-2133,-54,-271,25,-13942.203,6617.054,5252.814,1634.912,,,,,,2018-06-19 22:35:54.558
4.455841,190,654,-1953,-146,-338,-6,-13921.447,6649.131,5262.291,1651.094,,,,,,2018-06-19 22:35:54.578
4.476196,293,629,-2139,-112,-270,-67,-13897.555,6680.555,5280.441,1667.486,-10,-380,-527,,,2018-06-19 22:35:54.598
4.495819,197,838,-1954,-182,-272,-85,-13869.171,6708.292,5315.348,1681.494,,,,,,2018-06-19 22:35:54.618
4.515777,261,745,-2094,-290,-263,-118,-13839.844,6735.432,5350.418,1703.272,,,,,,2018-06-19 22:35:54.638
4.535766,147,762,-1865,-218,-284,-148,-13810.172,6762.979,5385.142,1725.382,,,,,,2018-06-19 22:35:54.658
4.555755,240,800,-1824,-272,-296,-138,-13780.722,6791.123,5416.324,1752.485,,,,,,2018-06-19 22:35:54.678
4.576111,184,845,-1684,-187,-261,-166,-13749.714,6816.285,5457.379,1770.899,13,-402,-554,,,2018-06-19 22:35:54.698
4.595733,217,815,-1776,-340,-307,-129,-13712.432,6853.781,5497.954,1789.644,,,,,,2018-06-19 22:35:54.718
4.615692,251,613,-2019,-236,-302,-130,-13687.169,6873.094,5531.839,1804.489,,,,,,2018-06-19 22:35:54.738
4.635711,312,1002,-1891,-239,-128,-98,-13655.453,6892.613,5586.16,1802.984,,,,,,2018-06-19 22:35:54.758
4.65567,356,812,-1748,-472,-287,-106,-13621.007,6912.743,5641.074,1815.452,,,,,,2018-06-19 22:35:54.778
4.676056,135,942,-1366,-335,-243,-186,-13592.213,6925.283,5688.821,1834.378,17,-405,-556,98626,23930,2018-06-19 22:35:54.798
4.695648,201,1117,-1730,-194,-125,-174,-13573.512,6925.879,5725.341,1856.841,,,,,,2018-06-19 22:35:54.818
4.715637,187,887,-1504,-218,-128,-189,-13554.812,6924.11,5764.586,1878.494,,,,,,2018-06-19 22:35:54.838
4.735626,51,1104,-1366,-117,-68,-193,-13542.287,6917.444,5794.361,1901.64,,,,,,2018-06-19 22:35:54.858
4.755585,104,886,-1433,-226,-122,-174,-13526.681,6914.747,5828.955,1916.742,,,,,,2018-06-19 22:35:54.878
4.776031,154,1150,-1661,-168,-131,-118,-13510.224,6924.711,5853.076,1923.317,21,-392,-543,,,2018-06-19 22:35:54.898
4.795563,203,983,-1546,-199,-127,-34,-13493.776,6935.138,5878.904,1922.442,,,,,,2018-06-19 22:35:54.918
4.815552,157,969,-1447,-141,-111,-24,-13482.187,6943.738,5894.337,1925.446,,,,,,2018-06-19 22:35:54.938
4.835541,163,911,-1533,-99,-119,-12,-13470.273,6954.332,5908.911,1925.932,,,,,,2018-06-19 22:35:54.958
4.85553,142,1106,-1734,-103,-124,8,-13458.009,6969.606,5917.68,1929.526,,,,,,2018-06-19 22:35:54.978
4.875885,103,1119,-1812,-103,-139,0,-13445.59,6984.595,5925.327,1938.42,13,-371,-531,,,2018-06-19 22:35:54.998
4.895477,110,924,-1555,-73,-169,-27,-13436.971,6997.227,5923.592,1957.835,,,,,,2018-06-19 22:35:55.017
4.915466,243,1161,-1879,-7,-157,-51,-13428.003,7009.524,5923.281,1976.229,,,,,,2018-06-19 22:35:55.037
4.935455,253,970,-1496,-54,-170,-43,-13420.529,7021.425,5918.725,1998.273,,,,,,2018-06-19 22:35:55.057
4.955444,169,1018,-1455,-25,-169,-42,-13414.672,7033.004,5912.534,2015.142,,,,,,2018-06-19 22:35:55.077
4.975799,286,1072,-1871,34,-142,-30,-13410.662,7044.728,5902.182,2031.161,5,-347,-503,,,2018-06-19 22:35:55.098
4.995392,19,1263,-1897,4,-157,11,-13411.159,7052.388,5887.653,2043.431,,,,,,2018-06-19 22:35:55.117
5.015381,102,1027,-1783,76,-115,16,-13412.526,7064.289,5864.436,2060.048,,,,,,2018-06-19 22:35:55.137
5.03537,199,1064,-1776,105,-142,42,-13413.272,7077.917,5839.391,2079.464,,,,,,2018-06-19 22:35:55.157
5.055359,92,964,-1738,149,-172,18,-13412.21,7094.429,5813.8,2101.63,,,,,,2018-06-19 22:35:55.177
5.075714,285,841,-1591,123,-189,15,-13412.873,7109.521,5783.776,2129.064,-3,-344,-488,,,2018-06-19 22:35:55.198
5.095306,80,1018,-1734,175,-161,-10,-13415.818,7117.906,5758.99,2149.581,,,,,,2018-06-19 22:35:55.217
5.115295,188,749,-1636,149,-121,2,-13421.258,7121.807,5731.642,2175.64,,,,,,2018-06-19 22:35:55.237
5.135315,135,1031,-1913,177,-124,-23,-13424.507,7127.773,5707.945,2198.242,,,,,,2018-06-19 22:35:55.257
5.155273,285,963,-1840,199,-119,-13,-13429.392,7131.126,5684.999,2216.913,,,,,,2018-06-19 22:35:55.277
5.175628,276,795,-1615,88,-93,16,-13435.893,7132.516,5661.216,2233.842,9,-339,-486,98626,23930,2018-06-19 22:35:55.298
5.195221,134,1049,-1984,147,-93,-6,-13443.831,7131.221,5637.36,2250.489,,,,,,2018-06-19 22:35:55.317
5.21521,229,900,-1913,145,-63,-4,-13454.198,7125.651,5614.339,2263.69,,,,,,2018-06-19 22:35:55.337
5.235199,257,966,-1805,114,-18,27,-13467.149,7118.15,5588.589,2273.973,,,,,,2018-06-19 22:35:55.357
5.255188,259,959,-1972,162,-24,35,-13480.717,7111.981,5561.332,2279.692,,,,,,2018-06-19 22:35:55.377
5.275543,273,867,-1889,142,-28,70,-13495.347,7105.463,5531.835,2285.221,8,-343,-510,,,2018-06-19 22:35:55.398
5.295166,162,1041,-2002,116,-13,70,-13510.43,7097.221,5505.01,2286.486,,,,,,2018-06-19 22:35:55.417
5.315124,196,983,-2072,130,12,75,-13523.858,7090.321,5480.658,2287.014,,,,,,2018-06-19 22:35:55.437
5.335113,247,876,-1919,91,-16,75,-13537.085,7083.921,5454.879,2290.225,,,,,,2018-06-19 22:35:55.457
5.355102,293,855,-1937,102,-3,58,-13552.016,7072.544,5431.24,2293.259,,,,,,2018-06-19 22:35:55.477
5.375458,234,1026,-2250,174,23,44,-13563.028,7060.28,5421.253,2289.578,8,-350,-501,,,2018-06-19 22:35:55.497
5.39508,234,811,-2042,11,24,49,-13575.842,7046.259,5406.372,2292.01,,,,,,2018-06-19 22:35:55.517
5.415039,321,899,-2047,19,34,17,-13588.943,7028.717,5396.051,2292.558,,,,,,2018-06-19 22:35:55.537
5.435028,166,949,-2119,71,55,4,-13600.433,7008.329,5394.131,2291.359,,,,,,2018-06-19 22:35:55.557
5.455017,173,903,-2053,11,53,0,-13611.21,6988.896,5393.195,2288.923,,,,,,2018-06-19 22:35:55.577
5.475372,-97,827,-1992,-38,65,1,-13618.156,6974.137,5396.466,2284.913,1,-359,-510,,,2018-06-19 22:35:55.597
5.494964,250,810,-1878,-85,29,16,-13622.126,6964.865,5399.755,2281.755,,,,,,2018-06-19 22:35:55.617
5.514953,127,987,-2087,-36,21,8,-13624.74,6955.877,5406.718,2277.072,,,,,,2018-06-19 22:35:55.637
5.534942,196,830,-1878,-58,-11,0,-13625.349,6949.532,5415.445,2272.055,,,,,,2018-06-19 22:35:55.657
5.554931,89,774,-2018,-86,-17,16,-13624.679,6946.897,5421.516,2269.654,,,,,,2018-06-19 22:35:55.677
5.575287,210,759,-1720,-103,-23,8,-13624.547,6943.228,5428.999,2263.783,4,-377,-523,,,2018-06-19 22:35:55.697
5.594909,289,996,-2016,-77,-4,17,-13623.309,6939.502,5440.377,2255.326,,,,,,2018-06-19 22:35:55.717
5.614868,129,879,-1944,-110,-30,19,-13620.314,6938.36,5452.813,2246.879,,,,,,2018-06-19 22:35:55.737
5.634857,110,700,-1628,-179,-25,28,-13618.905,6934.838,5465.543,2235.332,,,,,,2018-06-19 22:35:55.757
5.654846,229,806,-1723,-120,15,36,-13616.989,6931.449,5481.125,2219.305,,,,,,2018-06-19 22:35:55.777
5.675232,240,860,-1810,-138,0,58,-13615.816,6926.273,5499.511,2197.065,-5,-375,-520,98629,23930,2018-06-19 22:35:55.797
5.694824,289,938,-1782,-186,43,69,-13617.063,6918.458,5515.275,2174.327,,,,,,2018-06-19 22:35:55.817
5.714783,203,1062,-1918,-115,40,73,-13618.232,6912.089,5530.625,2148.114,,,,,,2018-06-19 22:35:55.837
5.734772,201,993,-1919,-157,50,101,-13620.851,6904.289,5543.367,2123.614,,,,,,2018-06-19 22:35:55.857
5.754761,217,1042,-1949,-155,68,99,-13624.016,6896.471,5554.013,2100.774,,,,,,2018-06-19 22:35:55.877
5.775116,268,1012,-1800,-155,55,89,-13628.056,6886.848,5563.418,2081.163,0,-370,-518,,,2018-06-19 22:35:55.897
5.794739,305,957,-1782,-90,48,64,-13632.229,6877.266,5570.381,2066.84,,,,,,2018-06-19 22:35:55.917
5.814697,268,1106,-2064,-58,40,47,-13636.815,6865.183,5579.063,2053.295,,,,,,2018-06-19 22:35:55.937
5.834686,195,975,-1919,-81,54,40,-13642.797,6849.749,5587.81,2041.283,,,,,,2018-06-19 22:35:55.957
5.854675,270,1113,-2092,-86,82,22,-13647.422,6833.807,5600.036,2030.264,,,,,,2018-06-19 22:35:55.977
5.87503,366,942,-1827,-146,76,5,-13651.227,6817.565,5613.076,2023.264,1,-376,-515,,,2018-06-19 22:35:55.997
5.894684,-115,1319,-2338,-97,68,-21,-13654.123,6799.525,5630.38,2016.345,,,,,,2018-06-19 22:35:56.017
5.914673,233,694,-1596,-158,67,-21,-13658.032,6780.251,5644.015,2016.655,,,,,,2018-06-19 22:35:56.037
5.934631,77,904,-1806,-109,87,-47,-13660.661,6762.708,5658.803,2016.307,,,,,,2018-06-19 22:35:56.057
5.95462,283,777,-1662,-113,56,-51,-13663.58,6746.132,5670.349,2019.616,,,,,,2018-06-19 22:35:56.077
5.974975,193,929,-1770,-60,27,-63,-13667.616,6726.96,5682.437,2022.282,-14,-364,-503,,,2018-06-19 22:35:56.097
5.994659,245,894,-1655,-24,59,-63,-13669.353,6712.201,5693.17,2029.384,,,,,,2018-06-19 22:35:56.117
6.014587,243,1016,-1858,-11,-2,-68,-13671.044,6698.24,5703.461,2035.217,,,,,,2018-06-19 22:35:56.137
6.034546,238,921,-1759,-14,17,-65,-13672.355,6688.067,5708.896,2044.601,,,,,,2018-06-19 22:35:56.157
6.054596,171,932,-1783,38,-21,-55,-13673.403,6678.096,5715.822,2050.824,,,,,,2018-06-19 22:35:56.177
6.07489,281,1059,-1890,12,0,-45,-13673.259,6672.444,5719.886,2058.839,-26,-347,-498,,,2018-06-19 22:35:56.197
6.094513,59,1373,-2261,-17,-29,-44,-13670.485,6670.009,5728.159,2062.144,,,,,,2018-06-19 22:35:56.217
6.114471,72,1085,-2002,-71,-34,-18,-13666.809,6667.614,5737.701,2067.722,,,,,,2018-06-19 22:35:56.236
6.134491,87,1269,-2203,-124,-52,-22,-13661.73,6665.353,5750.628,2072.66,,,,,,2018-06-19 22:35:56.256
6.15451,53,1077,-1956,-154,-57,-37,-13656.38,6663.115,5762.945,2080.883,,,,,,2018-06-19 22:35:56.277
6.174835,138,1205,-2076,-139,-64,-55,-13650.003,6661.731,5775.427,2092.519,-26,-347,-498,98630,23930,2018-06-19 22:35:56.297
6.194427,79,974,-1723,-109,-63,-75,-13646.55,6657.577,5781.142,2112.379,-27,-358,-500,,,2018-06-19 22:35:56.316
6.214386,101,1051,-1801,-41,-64,-104,-13642.314,6652.774,5788.73,2133.988,,,,,,2018-06-19 22:35:56.336
6.234375,139,1058,-1805,-37,-84,-124,-13636.501,6650.57,5794.678,2161.689,,,,,,2018-06-19 22:35:56.356
6.254364,124,1213,-1970,-35,-104,-134,-13627.112,6653.218,5801.621,2193.885,,,,,,2018-06-19 22:35:56.376
6.27475,62,1201,-1985,-42,-141,-148,-13617.746,6654.694,5808.444,2229.225,,,,,,2018-06-19 22:35:56.397
6.294342,78,1287,-2077,-46,-127,-163,-13609.309,6654.434,5813.959,2266.833,-38,-355,-494,,,2018-06-19 22:35:56.416
6.314331,0,1272,-1810,-42,-134,-163,-13604.546,6651.989,5814.217,2301.67,,,,,,2018-06-19 22:35:56.436
6.334289,-22,1186,-1893,15,-75,-137,-13601.001,6644.474,5817.429,2335.954,,,,,,2018-06-19 22:35:56.456
6.354278,77,1107,-1887,-11,-94,-158,-13594.985,6643.006,5818.287,2372.722,,,,,,2018-06-19 22:35:56.476
6.374664,114,981,-1920,19,-129,-159,-13590.613,6639.611,5815.333,2414.149,,,,,,2018-06-19 22:35:56.497
6.394256,63,1100,-2141,41,-128,-187,-13584.562,6639.645,5811.894,2456.037,-36,-358,-497,,,2018-06-19 22:35:56.516
6.414245,123,1048,-1964,43,-143,-165,-13578.197,6639.297,5807.869,2501.275,,,,,,2018-06-19 22:35:56.536
6.434234,68,1019,-1955,57,-169,-189,-13570.765,6641.484,5803.203,2546.229,,,,,,2018-06-19 22:35:56.556
6.454193,114,1030,-1992,69,-147,-193,-13565.116,6641.787,5794.082,2595.831,,,,,,2018-06-19 22:35:56.576
6.474579,137,984,-1928,129,-163,-206,-13558.9,6643.25,5783.132,2648.447,,,,,,2018-06-19 22:35:56.597
6.494171,137,978,-1826,131,-174,-228,-13548.276,6649.215,5774.952,2705.091,-26,-374,-517,,,2018-06-19 22:35:56.616
6.51416,146,1001,-1842,124,-203,-249,-13533.627,6657.634,5770.904,2765.674,,,,,,2018-06-19 22:35:56.636
6.534118,66,815,-1789,94,-234,-278,-13517.054,6667.057,5768.046,2829.255,,,,,,2018-06-19 22:35:56.656
6.554107,229,699,-1616,107,-226,-284,-13499.016,6678.541,5764.173,2895.412,,,,,,2018-06-19 22:35:56.676
6.574463,190,714,-1661,90,-277,-275,-13480.485,6690.928,5760.928,2958.909,,,,,,2018-06-19 22:35:56.696
6.594085,101,761,-1751,72,-298,-268,-13461.86,6705.878,5754.636,3021.444,-18,-371,-533,,,2018-06-19 22:35:56.716
6.614074,-43,948,-2053,54,-317,-247,-13442.625,6722.589,5747.729,3082.477,,,,,,2018-06-19 22:35:56.736
6.634033,-60,1108,-2116,18,-331,-216,-13421.763,6743.841,5739.091,3142.477,,,,,,2018-06-19 22:35:56.756
6.654022,13,1243,-2191,8,-346,-200,-13398.628,6768.127,5732.537,3200.415,,,,,,2018-06-19 22:35:56.776
6.674408,62,1036,-1850,25,-343,-194,-13377.91,6789.839,5722.31,3258.865,,,,,,2018-06-19 22:35:56.796
6.694,141,864,-1621,89,-300,-210,-13357.136,6812.08,5712.078,3315.127,-15,-370,-532,98635,23940,2018-06-19 22:35:56.816
6.713989,255,748,-1590,111,-279,-201,-13334.495,6836.603,5702.427,3371.921,,,,,,2018-06-19 22:35:56.836
6.733978,284,724,-1773,88,-331,-212,-13311.662,6862.395,5692.268,3426.47,,,,,,2018-06-19 22:35:56.856
6.753967,236,720,-1757,50,-348,-204,-13287.269,6890.221,5682.878,3480.47,,,,,,2018-06-19 22:35:56.876
6.774322,84,1164,-2136,17,-350,-185,-13263.614,6916.02,5674.863,3532.22,,,,,,2018-06-19 22:35:56.896
6.793915,104,1172,-2139,-11,-374,-171,-13240.112,6943.125,5665.311,3582.197,1,-378,-538,,,2018-06-19 22:35:56.916
6.813904,333,915,-1710,7,-333,-154,-13217.586,6968.969,5655.597,3630.226,,,,,,2018-06-19 22:35:56.936
6.833893,352,786,-1685,56,-308,-158,-13195.628,6994.253,5648.77,3671.871,,,,,,2018-06-19 22:35:56.956
6.853882,144,836,-1977,36,-297,-149,-13173.939,7019.975,5643.088,3709.214,,,,,,2018-06-19 22:35:56.976
6.874237,165,862,-1780,-10,-270,-120,-13153.987,7042.249,5638.642,3744.396,,,,,,2018-06-19 22:35:56.996
6.893799,174,968,-1880,-58,-264,-99,-13136.866,7061.153,5632.627,3777.805,5,-388,-542,,,2018-06-19 22:35:57.016
6.913788,272,755,-1541,-15,-256,-104,-13122.413,7076.566,5626.67,3807.952,,,,,,2018-06-19 22:35:57.036
6.933777,260,687,-1481,48,-191,-115,-13107.959,7091.278,5622.259,3836.771,,,,,,2018-06-19 22:35:57.056
6.953766,115,958,-1947,18,-192,-99,-13092.529,7107.046,5618.745,3865.321,,,,,,2018-06-19 22:35:57.076
6.974121,97,1021,-2060,-21,-214,-96,-13077.328,7120.513,5617.625,3893.521,,,,,,2018-06-19 22:35:57.096
6.993713,103,1051,-1907,-20,-207,-105,-13062.643,7134.42,5614.654,3921.543,20,-388,-535,,,2018-06-19 22:35:57.116
7.013702,246,687,-1557,5,-182,-89,-13048.978,7147.727,5607.502,3952.913,,,,,,2018-06-19 22:35:57.136
7.033691,88,991,-2129,60,-217,-95,-13031.878,7165.985,5601.83,3984.185,,,,,,2018-06-19 22:35:57.156
7.05368,164,1148,-2192,-1,-240,-105,-13013.198,7185.08,5596.492,4018.209,,,,,,2018-06-19 22:35:57.176
7.074035,144,1020,-2013,-40,-287,-119,-12994.335,7203.378,5590.189,4055.098,,,,,,2018-06-19 22:35:57.196
7.093628,333,678,-1613,18,-250,-142,-12975.373,7220.455,5586.28,4090.675,14,-392,-539,,,2018-06-19 22:35:57.216
7.113617,-176,1214,-2299,52,-238,-146,-12955.918,7239.223,5581.286,4125.834,,,,,,2018-06-19 22:35:57.236
7.133606,114,1196,-2232,-30,-258,-112,-12937.839,7254.374,5575.3,4163.872,,,,,,2018-06-19 22:35:57.256
7.153595,356,1025,-1908,-31,-227,-130,-12921.639,7265.469,5570.058,4201.675,,,,,,2018-06-19 22:35:57.276
7.17395,317,742,-1778,83,-209,-160,-12903.2,7279.233,5567.185,4238.168,,,,,,2018-06-19 22:35:57.296
7.193573,102,1290,-2294,-3,-222,-140,-12882.259,7294.735,5570.495,4270.746,25,-388,-542,98640,23930,2018-06-19 22:35:57.316
7.213592,355,860,-1825,-68,-259,-131,-12864.261,7306.86,5568.204,4307.102,,,,,,2018-06-19 22:35:57.336
7.23352,343,738,-1782,28,-214,-163,-12845.245,7322.382,5571.191,4333.552,,,,,,2018-06-19 22:35:57.356
7.253509,128,1108,-2290,-1,-200,-123,-12825.556,7339.643,5575.012,4357.686,,,,,,2018-06-19 22:35:57.376
7.273865,204,1231,-2074,-126,-210,-87,-12809.636,7350.045,5580.397,4380.029,,,,,,2018-06-19 22:35:57.396
7.293457,310,687,-1667,-90,-152,-95,-12795.262,7359.49,5586.299,4398.621,26,-387,-546,,,2018-06-19 22:35:57.415
7.313476,102,1375,-2323,-53,-124,-93,-12779.513,7371.202,5598.473,4409.302,,,,,,2018-06-19 22:35:57.435
7.333435,309,1215,-1996,-134,-140,-58,-12768.332,7375.751,5609.358,4420.241,,,,,,2018-06-19 22:35:57.455
7.353424,248,898,-1668,-118,-77,-65,-12759.661,7376.963,5616.806,4433.776,,,,,,2018-06-19 22:35:57.475
7.37381,-96,1324,-2319,-62,-80,-83,-12750.7,7378.682,5627.26,4443.43,,,,,,2018-06-19 22:35:57.496
7.393402,160,1315,-2078,-108,-72,-64,-12742.295,7377.307,5636.991,4457.468,25,-398,-547,,,2018-06-19 22:35:57.515
7.41336,288,788,-1630,-58,-57,-85,-12736.079,7372.221,5643.499,4475.377,,,,,,2018-06-19 22:35:57.535
7.433349,-161,1377,-2308,-48,-58,-95,-12728.024,7369.015,5652.529,4492.144,,,,,,2018-06-19 22:35:57.555
7.453338,258,810,-1585,-98,-73,-82,-12721.06,7362.649,5660.949,4511.664,,,,,,2018-06-19 22:35:57.575
7.473694,284,635,-1570,-5,-38,-129,-12712.029,7360.156,5670.205,4529.527,,,,,,2018-06-19 22:35:57.596
7.493286,-190,1302,-2160,-55,-82,-124,-12701.691,7358.487,5681.618,4546.906,22,-383,-528,,,2018-06-19 22:35:57.615
7.513275,280,691,-1506,-99,-98,-96,-12693.419,7349.996,5691.997,4570.697,,,,,,2018-06-19 22:35:57.635
7.533264,48,926,-1889,-16,-32,-152,-12681.816,7349.274,5702.675,4590.713,,,,,,2018-06-19 22:35:57.655
7.553253,-36,1120,-1837,-92,-127,-107,-12671.29,7349.771,5710.232,4609.55,,,,,,2018-06-19 22:35:57.675
7.573608,225,734,-1566,-49,-95,-94,-12660.596,7351.766,5715.71,4628.922,,,,,,2018-06-19 22:35:57.696
7.5932,-73,1260,-2087,-33,-99,-98,-12647.08,7359.989,5722.9,4643.894,22,-386,-531,,,2018-06-19 22:35:57.715
7.61322,201,969,-1876,-120,-159,-53,-12632.862,7370.134,5724.561,4664.413,,,,,,2018-06-19 22:35:57.735
7.633209,-49,1122,-2126,-37,-173,-75,-12616.272,7387.305,5724.206,4682.553,,,,,,2018-06-19 22:35:57.755
7.653168,148,1059,-1874,-93,-240,-35,-12598.127,7408.987,5716.086,4707.003,,,,,,2018-06-19 22:35:57.775
7.673553,111,1044,-1980,17,-238,-57,-12582.796,7431.192,5703.514,4728.211,,,,,,2018-06-19 22:35:57.796
7.693146,-69,1258,-2109,-34,-251,3,-12567.677,7455.757,5688.242,4748.106,21,-384,-530,98643,23940,2018-06-19 22:35:57.815
7.713104,332,775,-1622,-32,-244,36,-12555.344,7475.233,5678.181,4762.133,,,,,,2018-06-19 22:35:57.835
7.733093,19,1020,-1857,-19,-185,0,-12541.595,7498.159,5673.075,4768.402,,,,,,2018-06-19 22:35:57.855
7.753082,264,770,-1707,-98,-164,34,-12532.66,7512.566,5669.898,4772.994,,,,,,2018-06-19 22:35:57.875
7.773437,54,1149,-1942,-44,-132,9,-12525.749,7528.279,5667.081,4769.72,,,,,,2018-06-19 22:35:57.895
7.79306,339,727,-1439,-118,-113,64,-12521.014,7540.951,5665.593,4763.903,22,-386,-535,,,2018-06-19 22:35:57.915
7.813049,114,1037,-1791,-70,-84,51,-12519.863,7551.003,5663.123,4753.929,,,,,,2018-06-19 22:35:57.935
7.833008,346,694,-1362,-92,-62,95,-12525.253,7550.525,5659.794,4744.446,,,,,,2018-06-19 22:35:57.955
7.852997,-8,1486,-2168,6,-14,64,-12533.077,7547.367,5659.771,4728.812,,,,,,2018-06-19 22:35:57.975
7.873382,246,831,-1432,-106,24,84,-12541.384,7541.166,5656.783,4720.246,,,,,,2018-06-19 22:35:57.995
7.893005,-94,1113,-1885,22,58,42,-12546.48,7540.133,5654.215,4711.423,35,-375,-527,,,2018-06-19 22:35:58.015
7.912994,417,804,-1485,-91,-9,79,-12552.709,7536.566,5649.905,4705.708,,,,,,2018-06-19 22:35:58.035
7.932983,20,952,-1925,-11,-5,59,-12558.752,7533.362,5645.989,4699.408,,,,,,2018-06-19 22:35:58.055
7.952942,287,772,-1447,-63,-29,66,-12566.273,7527.954,5641.792,4693.005,,,,,,2018-06-19 22:35:58.075
7.973327,19,1183,-2133,-6,13,55,-12573.497,7523.635,5637.479,4685.76,,,,,,2018-06-19 22:35:58.095
7.99292,242,1030,-1650,-61,17,77,-12585.574,7512.069,5631.488,4679.093,22,-371,-515,,,2018-06-19 22:35:58.115
8.012909,299,983,-1750,44,38,57,-12598.547,7502.045,5623.333,4670.065,,,,,,2018-06-19 22:35:58.135
8.032898,303,838,-1549,-17,36,81,-12612.27,7492.106,5613.284,4661.058,,,,,,2018-06-19 22:35:58.155
8.052887,276,1162,-1995,59,38,70,-12627.093,7480.43,5605.691,4648.799,,,,,,2018-06-19 22:35:58.175
8.073242,193,832,-1679,-26,54,88,-12644.551,7464.47,5597.156,4637.273,,,,,,2018-06-19 22:35:58.195
8.092834,-43,1149,-2042,57,88,69,-12660.245,7449.902,5590.356,4626.069,13,-371,-512,,,2018-06-19 22:35:58.215
8.112793,346,654,-1609,-35,74,80,-12674.026,7437.444,5580.397,4620.4,,,,,,2018-06-19 22:35:58.235
8.132782,110,1168,-2168,42,48,67,-12684.447,7429.6,5573.908,4612.248,,,,,,2018-06-19 22:35:58.255
8.152771,171,753,-1767,-40,1,78,-12695.865,7420.355,5563.136,4608.718,,,,,,2018-06-19 22:35:58.275
8.173157,295,923,-1831,6,3,64,-12704.876,7414.129,5554.769,4603.996,,,,,,2018-06-19 22:35:58.295
8.192749,15,1000,-1943,27,-13,53,-12712.321,7412.052,5542.598,4601.456,15,-366,-526,98651,23930,2018-06-19 22:35:58.315
8.212738,278,799,-1503,10,-38,73,-12722.558,7407.405,5530.925,4594.689,,,,,,2018-06-19 22:35:58.335
8.232727,-105,1450,-2516,53,0,84,-12731.6,7407.655,5519.539,4582.916,,,,,,2018-06-19 22:35:58.355
8.252716,155,690,-1512,-79,-6,132,-12740.643,7408.06,5507.692,4571.37,,,,,,2018-06-19 22:35:58.375
8.273071,34,1220,-2124,19,-21,119,-12745.691,7413.301,5501.265,4556.516,,,,,,2018-06-19 22:35:58.395
8.292663,204,924,-1625,-144,-29,121,-12750.447,7417.956,5493.907,4544.495,8,-378,-522,,,2018-06-19 22:35:58.415
8.312652,296,646,-1471,-56,-51,102,-12752.469,7425.846,5485.875,4535.632,,,,,,2018-06-19 22:35:58.435
8.332641,-121,1415,-2412,50,-57,73,-12750.312,7439.768,5479.826,4526.182,,,,,,2018-06-19 22:35:58.455
8.35263,18,725,-1708,-82,-98,91,-12750.138,7449.065,5471.258,4521.743,,,,,,2018-06-19 22:35:58.475
8.372986,168,1017,-1712,11,-66,77,-12749.734,7457.507,5467.565,4513.426,,,,,,2018-06-19 22:35:58.495
8.392578,-78,1447,-2352,-69,-39,78,-12749.362,7465.898,5460.95,4508.612,1,-376,-528,,,2018-06-19 22:35:58.515
8.412567,225,629,-1481,-72,-84,89,-12750.625,7470.599,5452.046,4508.03,,,,,,2018-06-19 22:35:58.535
8.432647,94,1369,-2204,-4,-73,59,-12748.53,7479.944,5446.529,4505.126,,,,,,2018-06-19 22:35:58.555
8.452545,-34,1277,-2146,-112,-111,57,-12748.919,7486.456,5435.753,4506.225,,,,,,2018-06-19 22:35:58.575
8.4729,295,691,-1222,-16,-95,69,-12752.525,7488.543,5421.044,4510.27,,,,,,2018-06-19 22:35:58.595
8.492492,136,1390,-2280,55,-65,64,-12751.666,7498.856,5406.816,4512.643,5,-371,-519,,,2018-06-19 22:35:58.614
8.512481,-74,1000,-1852,-50,-140,70,-12751.234,7511.421,5383.532,4520.796,,,,,,2018-06-19 22:35:58.634
8.53247,317,827,-1569,96,-157,77,-12746.237,7530.696,5361.867,4528.562,,,,,,2018-06-19 22:35:58.654
8.552429,136,1198,-2065,85,-187,47,-12739.377,7549.775,5343.633,4537.639,,,,,,2018-06-19 22:35:58.674
8.572815,-116,986,-1940,7,-195,27,-12734.015,7562.691,5325.603,4552.356,,,,,,2018-06-19 22:35:58.695
8.592407,425,508,-1207,80,-164,6,-12728.713,7571.313,5308.365,4572.939,5,-386,-524,,,2018-06-19 22:35:58.714
8.612396,129,1337,-2191,107,-144,-20,-12723.034,7581.626,5290.473,4592.348,,,,,,2018-06-19 22:35:58.734
8.632385,255,1032,-1955,-27,-154,4,-12721.757,7586.159,5269.291,4612.711,,,,,,2018-06-19 22:35:58.754
8.652374,171,954,-1847,52,-159,6,-12718.627,7593.269,5253.791,4627.298,,,,,,2018-06-19 22:35:58.774
8.672729,24,1388,-2370,66,-136,0,-12713.124,7604.259,5239.838,4640.177,,,,,,2018-06-19 22:35:58.795
8.692352,-46,1200,-2174,-55,-146,11,-12707.699,7612.819,5227.182,4655.252,-3,-380,-527,98652,23930,2018-06-19 22:35:58.814
8.712311,337,753,-1564,-8,-158,-4,-12701.817,7620.348,5217.795,4669.496,,,,,,2018-06-19 22:35:58.834
8.7323,198,891,-1760,35,-151,-18,-12695.094,7629.642,5207.364,4684.221,,,,,,2018-06-19 22:35:58.854
8.752289,245,1378,-2310,-3,-126,-24,-12688.928,7638.761,5195.353,4699.381,,,,,,2018-06-19 22:35:58.874
8.772644,145,769,-1773,-32,-151,-10,-12686.544,7641.99,5185.75,4711.159,,,,,,2018-06-19 22:35:58.895
8.792267,541,670,-1552,18,-107,-15,-12683.705,7644.629,5179.796,4721.062,19,-377,-520,,,2018-06-19 22:35:58.914
8.812225,363,1008,-1699,3,-96,-18,-12678.653,7649.586,5179.078,4727.385,,,,,,2018-06-19 22:35:58.934
8.832214,14,1529,-2397,-45,-73,-31,-12676.205,7650.269,5176.358,4735.815,,,,,,2018-06-19 22:35:58.954
8.852234,184,841,-1797,-59,-59,-25,-12674.226,7647.869,5174.509,4746.996,,,,,,2018-06-19 22:35:58.974
8.872558,367,426,-1317,21,-58,-52,-12673.217,7644.093,5173.761,4756.577,,,,,,2018-06-19 22:35:58.995
8.892151,322,1068,-1874,34,-61,-52,-12671.241,7641.729,5172.724,4766.757,7,-377,-520,,,2018-06-19 22:35:59.014
8.91217,-16,1443,-2545,-1,-42,-38,-12670.846,7638.144,5166.473,4780.315,,,,,,2018-06-19 22:35:59.034
8.932129,207,673,-1650,14,-79,-28,-12670.042,7635.052,5154.855,4799.885,,,,,,2018-06-19 22:35:59.054
8.952118,265,968,-1767,122,-105,-45,-12665.979,7640.466,5141.883,4815.881,,,,,,2018-06-19 22:35:59.074
8.972473,413,899,-1560,91,-130,-21,-12663.63,7644.527,5123.735,4834.921,,,,,,2018-06-19 22:35:59.094
8.992065,257,1318,-2032,103,-91,-7,-12665.965,7644.587,5105.821,4847.642,20,-390,-519,,,2018-06-19 22:35:59.114
9.012085,76,1309,-2230,39,-80,22,-12671.225,7642.355,5088.287,4855.844,,,,,,2018-06-19 22:35:59.134
9.032043,356,821,-1684,55,-42,41,-12677.09,7637.468,5074.903,4862.228,,,,,,2018-06-19 22:35:59.154
9.052032,134,572,-1321,94,-18,20,-12682.856,7629.576,5065.831,4869.037,,,,,,2018-06-19 22:35:59.174
9.072387,125,1231,-2147,65,-9,1,-12685.571,7624.009,5057.208,4879.637,,,,,,2018-06-19 22:35:59.194
9.09201,167,1256,-2179,-16,-47,-4,-12688.832,7616.19,5051.969,4888.788,17,-383,-510,,,2018-06-19 22:35:59.214
9.111999,37,1313,-2313,4,-32,-12,-12692.49,7607.438,5046.275,4898.788,,,,,,2018-06-19 22:35:59.234
9.131958,348,778,-1672,-7,-39,0,-12700.23,7594.309,5035.825,4909.839,,,,,,2018-06-19 22:35:59.254
9.151947,317,921,-1741,88,15,-5,-12709.857,7580.085,5030.758,4912.102,,,,,,2018-06-19 22:35:59.274
9.172333,373,775,-1512,79,44,14,-12721.485,7563.037,5024.455,4914.73,,,,,,2018-06-19 22:35:59.294
9.191925,235,1171,-2076,55,60,20,-12735.159,7543.621,5020.234,4913.471,-2,-388,-526,98652,23930,2018-06-19 22:35:59.314
9.211914,162,1246,-2255,3,99,22,-12748.701,7523.241,5018.403,4911.469,,,,,,2018-06-19 22:35:59.334
9.231872,237,909,-1875,-24,67,33,-12764.929,7499.593,5014.641,4909.327,,,,,,2018-06-19 22:35:59.354
9.251861,377,592,-1473,66,86,37,-12780.295,7480.188,5008.854,4904.861,,,,,,2018-06-19 22:35:59.374
9.272247,368,540,-1344,81,86,46,-12796.755,7460.556,5001.545,4899.3,,,,,,2018-06-19 22:35:59.394
9.291839,158,941,-1925,75,84,47,-12811.226,7444.475,4994.662,4892.96,2,-384,-511,,,2018-06-19 22:35:59.414
9.311828,136,1012,-2032,4,56,67,-12822.251,7435.376,4985.681,4887.072,,,,,,2018-06-19 22:35:59.434
9.331817,-46,1252,-2363,-24,-13,83,-12834.577,7424.457,4975.571,4881.618,,,,,,2018-06-19 22:35:59.454
9.351776,114,913,-1903,-26,52,72,-12846.977,7412.258,4966.433,4876.842,,,,,,2018-06-19 22:35:59.474
9.372162,217,677,-1475,23,29,59,-12860.322,7397.084,4957.666,4873.629,,,,,,2018-06-19 22:35:59.494
9.391754,312,597,-1490,75,75,35,-12874.897,7378.077,4950.739,4870.998,5,-386,-515,,,2018-06-19 22:35:59.514
9.411743,272,655,-1431,99,75,18,-12889.379,7357.4,4947.592,4867.168,,,,,,2018-06-19 22:35:59.534
9.431701,76,1035,-1880,44,101,22,-12904.053,7334.497,4944.555,4865.939,,,,,,2018-06-19 22:35:59.554
9.45169,77,1111,-1987,-6,112,11,-12916.46,7314.103,4939.821,4868.527,,,,,,2018-06-19 22:35:59.574
9.472076,29,1335,-2278,7,82,0,-12927.958,7293.522,4934.476,4874.301,,,,,,2018-06-19 22:35:59.594
9.491668,-64,1302,-2357,22,40,-6,-12936.961,7276.306,4924.391,4886.329,-11,-378,-515,,,2018-06-19 22:35:59.614
9.511658,36,982,-1963,46,30,0,-12946.248,7258.719,4911.933,4900.408,,,,,,2018-06-19 22:35:59.634
9.531647,105,868,-1822,118,-12,-25,-12954.307,7243.522,4896.007,4917.504,,,,,,2018-06-19 22:35:59.654
9.551605,38,958,-1970,140,-9,-36,-12960.964,7231.233,4878.92,4935.003,,,,,,2018-06-19 22:35:59.674
9.571991,107,649,-1569,136,-56,-28,-12964.749,7221.966,4864.996,4952.346,,,,,,2018-06-19 22:35:59.694
9.591583,225,766,-1891,88,-50,-33,-12967.472,7215.12,4849.215,4970.639,0,-387,-516,,,2018-06-19 22:35:59.714
9.611572,188,954,-1915,68,-64,-36,-12970.078,7208.765,4831.269,4990.496,,,,,,2018-06-19 22:35:59.734
9.631592,98,1127,-2224,67,-99,-31,-12971.268,7205.348,4811.755,5011.15,,,,,,2018-06-19 22:35:59.754
9.651581,111,1167,-2146,54,-79,-28,-12970.49,7203.608,4795.464,5031.24,,,,,,2018-06-19 22:35:59.774
9.671905,155,880,-2045,58,-100,-34,-12968.512,7203.738,4783.79,5047.24,,,,,,2018-06-19 22:35:59.794
9.691528,64,822,-2068,28,-74,-27,-12966.102,7204.152,4771.929,5064.04,-3,-404,-520,98663,23930,2018-06-19 22:35:59.814
9.711487,-98,874,-2025,56,-131,-49,-12960.45,7210.294,4764.397,5076.844,,,,,,2018-06-19 22:35:59.833
9.731445,78,599,-1711,38,-144,-36,-12949.853,7221.206,4759.069,5093.346,,,,,,2018-06-19 22:35:59.853
9.751465,-17,807,-1737,18,-155,-50,-12936.616,7236.817,4757.278,5106.484,,,,,,2018-06-19 22:35:59.873
9.77182,214,689,-1611,5,-160,-51,-12919.163,7257.705,4757.68,5120.632,,,,,,2018-06-19 22:35:59.894
9.791412,153,580,-1382,-20,-214,-52,-12900.866,7279.428,4755.487,5137.934,0,-401,-523,,,2018-06-19 22:35:59.913
9.811401,219,738,-1596,-38,-208,-49,-12884.449,7298.908,4755.25,5151.694,,,,,,2018-06-19 22:35:59.933
9.83139,326,640,-1583,-56,-194,-32,-12869.527,7315.423,4753.431,5167.222,,,,,,2018-06-19 22:35:59.953
9.851379,177,498,-1365,-21,-208,-42,-12854.423,7334.926,4750.167,5180.157,,,,,,2018-06-19 22:35:59.973
9.871734,289,631,-1467,-38,-187,-43,-12834.385,7361.536,4753.302,5189.211,,,,,,2018-06-19 22:35:59.994
9.891327,251,754,-1671,-67,-225,-45,-12814.74,7386.251,4756.137,5200.032,0,-411,-530,,,2018-06-19 22:36:00.013
9.911316,274,732,-1770,-58,-208,-46,-12797.446,7404.828,4758.167,5214.325,,,,,,2018-06-19 22:36:00.033
9.931305,365,542,-1461,-56,-169,-73,-12780.73,7421.906,4762.074,5227.458,,,,,,2018-06-19 22:36:00.053
9.951294,318,536,-1473,-55,-161,-76,-12767.112,7432.978,4767.952,5239.633,,,,,,2018-06-19 22:36:00.073
9.971649,93,760,-1700,-73,-116,-73,-12754.359,7439.721,4776.223,5253.569,,,,,,2018-06-19 22:36:00.094
9.991241,219,619,-1481,-101,-118,-86,-12737.664,7450.744,4787.62,5268.059,13,-414,-533,,,2018-06-19 22:36:00.113
10.01123,180,605,-1434,-103,-103,-103,-12721.834,7459.064,4798.066,5285.005,,,,,,2018-06-19 22:36:00.133
10.031219,111,679,-1574,-81,-108,-105,-12705.251,7469.591,4810.39,5298.81,,,,,,2018-06-19 22:36:00.153
10.051208,323,609,-1323,-75,-126,-101,-12688.905,7480.67,4816.334,5316.918,,,,,,2018-06-19 22:36:00.173
10.071564,187,790,-1762,-30,-131,-116,-12671.874,7492.621,4822.318,5335.252,,,,,,2018-06-19 22:36:00.194
10.091156,113,485,-1425,-57,-150,-107,-12651.7,7508.19,4829.98,5354.278,21,-404,-532,,,2018-06-19 22:36:00.213
10.111175,86,669,-1591,-32,-185,-114,-12628.536,7527.307,4832.633,5379.666,,,,,,2018-06-19 22:36:00.233
10.131164,213,673,-1476,-70,-220,-116,-12603.402,7548.736,4836.131,5405.379,,,,,,2018-06-19 22:36:00.253
10.151123,157,661,-1343,-44,-240,-129,-12579.854,7565.812,4841.716,5431.295,,,,,,2018-06-19 22:36:00.273
10.171478,50,779,-1622,-26,-188,-147,-12555.132,7583.894,4844.03,5461.138,,,,,,2018-06-19 22:36:00.293
10.19107,-66,825,-1659,-41,-208,-128,-12531.083,7600.743,4846.58,5490.608,13,-395,-528,98669,23930,2018-06-19 22:36:00.313
10.211059,275,756,-1555,-11,-235,-128,-12507.377,7618.812,4842.607,5523.024,,,,,,2018-06-19 22:36:00.333
10.231048,45,558,-1299,52,-218,-137,-12483.572,7637.182,4837.472,5555.913,,,,,,2018-06-19 22:36:00.353
10.251037,95,962,-1907,-12,-276,-124,-12453.53,7664.2,4835.1,5588.101,,,,,,2018-06-19 22:36:00.373
10.271393,-42,953,-1670,-4,-318,-148,-12423.24,7689.654,4832.881,5622.367,,,,,,2018-06-19 22:36:00.393
10.290985,-91,1327,-2257,-22,-311,-145,-12389.141,7718.102,4834.26,5657.335,33,-404,-534,,,2018-06-19 22:36:00.413
10.310974,-79,1328,-2417,-43,-319,-156,-12353.783,7745.97,4828.935,5700.947,,,,,,2018-06-19 22:36:00.433
10.330963,-103,1444,-2507,-5,-313,-176,-12320.252,7769.029,4823.323,5746.7,,,,,,2018-06-19 22:36:00.453
10.350952,151,1547,-2544,5,-298,-181,-12285.979,7791.498,4819.056,5793.049,,,,,,2018-06-19 22:36:00.473
10.371307,227,1259,-2213,-37,-323,-190,-12252.902,7813.437,4807.918,5842.598,,,,,,2018-06-19 22:36:00.493
10.39093,380,1144,-2213,50,-305,-207,-12216.539,7839.159,4799.851,5890.723,26,-396,-534,,,2018-06-19 22:36:00.513
10.410888,262,996,-2017,-68,-343,-202,-12181.586,7860.968,4790.1,5941.761,,,,,,2018-06-19 22:36:00.533
10.430877,115,864,-1697,12,-332,-219,-12142.687,7889.062,4776.521,5994.842,,,,,,2018-06-19 22:36:00.553
10.450866,243,786,-1728,-1,-415,-202,-12094.519,7933.185,4761.397,6045.802,,,,,,2018-06-19 22:36:00.573
10.471222,141,737,-1822,-13,-458,-201,-12048.273,7974.267,4748.563,6093.993,,,,,,2018-06-19 22:36:00.593
10.490845,282,756,-1675,-73,-433,-170,-12000.721,8017.576,4737.832,6139.181,41,-400,-528,,,2018-06-19 22:36:00.613
10.510803,64,1041,-1913,-38,-433,-180,-11956.851,8052.387,4729.23,6185.676,,,,,,2018-06-19 22:36:00.633
10.530823,228,773,-1694,-13,-382,-188,-11914.393,8083.174,4723.967,6231.301,,,,,,2018-06-19 22:36:00.653
10.550781,234,950,-1867,7,-351,-208,-11871.715,8117.585,4725.589,6266.692,,,,,,2018-06-19 22:36:00.673
10.571136,201,1126,-2117,-85,-398,-157,-11828.251,8157.481,4725.301,6297.216,,,,,,2018-06-19 22:36:00.693
10.590759,250,1428,-2499,-132,-406,-125,-11791.502,8186.86,4723.238,6329.475,54,-408,-541,,,2018-06-19 22:36:00.713
10.610718,146,1479,-2292,-104,-322,-146,-11758.058,8209.542,4720.256,6364.441,,,,,,2018-06-19 22:36:00.733
10.630707,360,916,-1631,-68,-294,-162,-11722.875,8232.611,4715.096,6403.25,,,,,,2018-06-19 22:36:00.753
10.650696,368,795,-1665,-41,-275,-184,-11687.591,8253.799,4718.909,6437.572,,,,,,2018-06-19 22:36:00.773
10.671051,224,611,-1572,-75,-254,-204,-11654.374,8267.681,4722.774,6477.023,,,,,,2018-06-19 22:36:00.793
10.690674,139,976,-1819,-51,-263,-215,-11617.655,8290.206,4727.53,6510.641,74,-399,-546,98678,23920,2018-06-19 22:36:00.813
10.710663,-12,1256,-2143,-73,-298,-183,-11582.262,8313.165,4731.852,6541.217,,,,,,2018-06-19 22:36:00.833
10.730621,93,1485,-2318,-97,-279,-144,-11553.644,8331.026,4735.104,6566.699,,,,,,2018-06-19 22:36:00.853
10.75061,287,1419,-2294,-60,-206,-132,-11530.406,8344.331,4735.96,6589.99,,,,,,2018-06-19 22:36:00.873
10.770965,472,1136,-1913,-91,-184,-100,-11508.874,8360.368,4740.255,6604.201,,,,,,2018-06-19 22:36:00.893
10.790588,266,796,-1358,-124,-172,-70,-11496.342,8368.144,4744.654,6613.014,60,-393,-531,,,2018-06-19 22:36:00.913
10.810577,475,620,-1301,-91,-24,-70,-11486.915,8373.463,4747.447,6620.656,,,,,,2018-06-19 22:36:00.933
10.830536,26,1073,-1817,-43,-110,-18,-11487.018,8371.704,4747.484,6622.674,,,,,,2018-06-19 22:36:00.953
10.850525,272,1080,-1846,-43,21,22,-11493.189,8365.025,4749.127,6619.228,,,,,,2018-06-19 22:36:00.973
10.870971,406,1297,-2181,16,-13,40,-11503.574,8360.552,4747.577,6607.941,,,,,,2018-06-19 22:36:00.993
10.890503,396,1133,-2019,-36,8,86,-11521.689,8350.898,4744.341,6590.89,68,-378,-538,,,2018-06-19 22:36:01.013
10.910492,373,903,-1674,-66,85,112,-11540.033,8346.391,4740.13,6567.495,,,,,,2018-06-19 22:36:01.032
10.930481,385,757,-1472,-123,57,172,-11563.038,8340.404,4736.655,6537.073,,,,,,2018-06-19 22:36:01.052
10.95047,35,912,-1746,-74,112,205,-11591.926,8330.845,4734.909,6499.257,,,,,,2018-06-19 22:36:01.072
10.970825,32,1221,-2041,-68,177,234,-11625.225,8319.721,4735.736,6453.264,,,,,,2018-06-19 22:36:01.093
10.990417,288,1231,-2100,-74,171,276,-11663.602,8304.972,4733.298,6404.62,59,-392,-534,,,2018-06-19 22:36:01.112
11.010406,429,1018,-1756,-125,195,299,-11705.622,8291.358,4730.845,6347.152,,,,,,2018-06-19 22:36:01.132
11.030395,128,901,-1638,-148,241,331,-11752.635,8271.454,4729.357,6287.068,,,,,,2018-06-19 22:36:01.152
11.050354,-108,977,-1867,-87,290,333,-11802.049,8245.76,4726.705,6229.99,,,,,,2018-06-19 22:36:01.172
11.07074,149,1475,-2373,-21,311,318,-11849.395,8219.814,4729.515,6172.003,,,,,,2018-06-19 22:36:01.193
11.090332,437,990,-1880,-111,281,314,-11890.431,8198.138,4731.139,6120.451,51,-383,-524,,,2018-06-19 22:36:01.212
11.110321,201,1059,-1830,-101,217,267,-11929.19,8176,4733.354,6072.745,,,,,,2018-06-19 22:36:01.232
11.130279,17,852,-1386,-151,267,249,-11965.065,8152.78,4739.456,6028.463,,,,,,2018-06-19 22:36:01.252
11.150268,209,886,-1444,-97,257,220,-11998.005,8127.977,4744.838,5992.145,,,,,,2018-06-19 22:36:01.272
11.170654,23,1170,-1897,2,238,148,-12025.782,8105.812,4751.234,5961.341,,,,,,2018-06-19 22:36:01.293
11.190246,185,1185,-1917,-36,180,132,-12054.475,8078.507,4752.085,5939.736,43,-377,-530,98685,23930,2018-06-19 22:36:01.312
11.210235,272,975,-1621,-4,195,119,-12084.111,8050.506,4747.118,5921.479,,,,,,2018-06-19 22:36:01.332
11.230224,-132,907,-1589,29,178,117,-12114.806,8022.291,4733.089,5908.267,,,,,,2018-06-19 22:36:01.352
11.250213,-139,1266,-2143,101,128,141,-12142.696,8000.341,4711.454,5898.059,,,,,,2018-06-19 22:36:01.372
11.270599,-45,1460,-2362,123,92,156,-12169.901,7980.559,4690.272,5885.657,,,,,,2018-06-19 22:36:01.393
11.290161,152,1220,-1817,68,77,179,-12195.397,7965.697,4665.19,5872.938,19,-384,-523,,,2018-06-19 22:36:01.412
11.31015,-3,758,-1495,67,77,187,-12220.311,7953.883,4638.339,5858.411,,,,,,2018-06-19 22:36:01.432
11.330108,85,777,-1740,132,53,176,-12239.754,7948.057,4615.836,5843.482,,,,,,2018-06-19 22:36:01.452
11.350128,94,968,-2125,73,16,152,-12252.894,7947.864,4596.666,5831.306,,,,,,2018-06-19 22:36:01.472
11.370453,244,1178,-2061,19,-57,143,-12263.34,7948.969,4581.706,5819.602,,,,,,2018-06-19 22:36:01.492
11.390075,113,950,-1765,-70,-49,135,-12271.624,7950.941,4564.286,5813.131,38,-387,-520,,,2018-06-19 22:36:01.512
11.410064,-104,962,-1788,-12,-49,108,-12277.23,7959.17,4545.608,5804.663,,,,,,2018-06-19 22:36:01.532
11.430053,-67,1075,-2133,61,-86,114,-12278.949,7974.275,4526.197,5795.457,,,,,,2018-06-19 22:36:01.552
11.450043,244,930,-1669,4,-138,146,-12277.454,7993.644,4511.19,5783.63,,,,,,2018-06-19 22:36:01.572
11.470398,202,720,-1451,-95,-155,136,-12273.553,8017.033,4495.225,5771.954,,,,,,2018-06-19 22:36:01.592
11.490021,121,968,-1844,-80,-155,143,-12268.518,8045.079,4476.321,5758.312,22,-393,-535,,,2018-06-19 22:36:01.612
11.509979,205,1461,-2506,-57,-193,168,-12260.37,8077.896,4459.367,5742.856,,,,,,2018-06-19 22:36:01.632
11.529968,433,879,-1594,-115,-260,190,-12245.974,8117.263,4442.161,5731.387,,,,,,2018-06-19 22:36:01.652
11.549957,-71,706,-1464,-166,-279,143,-12231.513,8153.86,4428.223,5721.094,,,,,,2018-06-19 22:36:01.672
11.570312,-34,1590,-2704,-82,-255,128,-12218.661,8187.126,4408.687,5716.135,,,,,,2018-06-19 22:36:01.692
11.589905,365,1225,-1738,-54,-240,134,-12207.38,8212.769,4397.241,5712.266,23,-387,-520,,,2018-06-19 22:36:01.712
11.609894,82,922,-1673,-114,-203,106,-12196.385,8240.152,4376.202,5712.475,,,,,,2018-06-19 22:36:01.732
11.629883,-63,1068,-1821,2,-186,108,-12186.649,8263.376,4354.35,5716.403,,,,,,2018-06-19 22:36:01.752
11.649872,490,1103,-2036,-4,-192,82,-12174.372,8287.838,4336.346,5720.832,,,,,,2018-06-19 22:36:01.772
11.670227,377,753,-1687,-32,-276,58,-12157.22,8315.31,4320.506,5729.421,,,,,,2018-06-19 22:36:01.792
11.689819,342,731,-1382,-135,-260,24,-12138.147,8342.578,4312.418,5736.311,33,-392,-520,98685,23920,2018-06-19 22:36:01.812
11.709808,108,1575,-2542,-48,-267,-2,-12114.917,8374.626,4305.59,5743.845,,,,,,2018-06-19 22:36:01.832
11.729797,487,969,-1779,-103,-272,-3,-12090.173,8404.877,4300.183,5755.833,,,,,,2018-06-19 22:36:01.852
11.749786,228,746,-1478,-78,-251,-35,-12066.315,8430.929,4293.049,5773.096,,,,,,2018-06-19 22:36:01.872
11.770141,-46,1293,-2242,-32,-244,-79,-12039.143,8458.754,4289.757,5791.539,,,,,,2018-06-19 22:36:01.892
11.789734,554,1227,-2033,-33,-255,-63,-12010.996,8484.459,4290.537,5811.768,47,-377,-532,,,2018-06-19 22:36:01.912
11.809723,155,616,-1500,-114,-308,-73,-11984.026,8508.004,4289.933,5833.43,,,,,,2018-06-19 22:36:01.932
11.829712,212,1193,-2245,-15,-263,-115,-11953.742,8535.005,4288.112,5857.41,,,,,,2018-06-19 22:36:01.952
11.849701,363,1232,-2054,-89,-300,-104,-11921.042,8561.654,4286.169,5886.513,,,,,,2018-06-19 22:36:01.972
11.870056,245,906,-1690,-54,-305,-145,-11886.318,8589.158,4287.856,5915.362,,,,,,2018-06-19 22:36:01.992
11.889648,155,1278,-2095,-96,-282,-141,-11848.73,8622.466,4291.932,5939.313,44,-383,-531,,,2018-06-19 22:36:02.012
11.909607,333,1329,-2028,-113,-317,-121,-11814.341,8650.864,4298.078,5962.035,,,,,,2018-06-19 22:36:02.032
11.929596,341,1070,-1492,-133,-250,-123,-11783.231,8676.537,4300.937,5984.191,,,,,,2018-06-19 22:36:02.052
11.949585,272,1452,-2264,-55,-256,-106,-11756.64,8699.812,4298.74,6004.244,,,,,,2018-06-19 22:36:02.072
11.96994,347,1365,-1837,-60,-268,-60,-11735.245,8718.477,4295.678,6021.191,,,,,,2018-06-19 22:36:02.092
11.989563,222,897,-1503,-99,-212,-44,-11713.326,8742.207,4295.449,6029.624,54,-375,-532,,,2018-06-19 22:36:02.112
12.009552,216,1153,-1885,-87,-213,-19,-11694.762,8763.763,4293.457,6035.781,,,,,,2018-06-19 22:36:02.132
12.02951,307,1136,-1743,-52,-173,-8,-11678.608,8783.226,4292.698,6039.307,,,,,,2018-06-19 22:36:02.152
12.049499,278,956,-1508,-133,-182,13,-11666.654,8798.813,4292.176,6040.094,,,,,,2018-06-19 22:36:02.171
12.069885,341,1321,-1916,-90,-114,14,-11660.163,8808.702,4293.009,6037.62,,,,,,2018-06-19 22:36:02.192
12.089538,433,1245,-1788,-61,-63,26,-11656.416,8815.747,4298.437,6030.709,50,-363,-523,,,2018-06-19 22:36:02.212
12.109436,255,1070,-1522,-113,-83,38,-11655.21,8821.156,4299.145,6024.621,,,,,,2018-06-19 22:36:02.231
12.129425,597,1517,-1994,-67,-24,45,-11658.442,8820.583,4303.876,6015.822,,,,,,2018-06-19 22:36:02.251
12.149414,399,922,-1466,-80,11,38,-11668.284,8810.962,4306.098,6009.247,,,,,,2018-06-19 22:36:02.271
12.169769,337,1615,-2055,-69,83,42,-11684.006,8796.558,4312.136,5995.454,,,,,,2018-06-19 22:36:02.292
12.189392,642,1279,-1619,-48,114,73,-11705.458,8776.326,4314.385,5981.627,57,-375,-518,98693,23920,2018-06-19 22:36:02.311
12.20935,249,919,-1443,-58,155,100,-11736.147,8749.181,4313.753,5961.682,,,,,,2018-06-19 22:36:02.331
12.22937,290,1342,-2031,-2,231,128,-11776.306,8712.398,4315.444,5935.073,,,,,,2018-06-19 22:36:02.351
12.249328,506,1082,-1523,-14,285,167,-11819.826,8674.273,4315.44,5904.33,,,,,,2018-06-19 22:36:02.371
12.269714,241,1064,-1642,-3,308,165,-11861.739,8638.376,4314.172,5873.752,,,,,,2018-06-19 22:36:02.392
12.289306,560,1097,-1780,38,223,190,-11900.987,8607.743,4315.423,5838.306,41,-376,-519,,,2018-06-19 22:36:02.411
12.309295,97,1070,-1741,-44,268,198,-11942.038,8574.51,4314.503,5803.963,,,,,,2018-06-19 22:36:02.431
12.329254,332,1165,-1672,27,258,196,-11985.839,8539.073,4306.068,5772.096,,,,,,2018-06-19 22:36:02.451
12.349243,323,1257,-1850,51,297,225,-12035.469,8497.209,4297.021,5737.244,,,,,,2018-06-19 22:36:02.471
12.369629,101,1091,-1511,49,345,218,-12094.336,8440.801,4287.29,5703.9,,,,,,2018-06-19 22:36:02.492
12.389221,337,1244,-1952,110,431,227,-12155.188,8381.847,4276.882,5669.194,37,-366,-517,,,2018-06-19 22:36:02.511
12.40921,91,1046,-1687,156,393,233,-12215.676,8323.292,4260.775,5637.491,,,,,,2018-06-19 22:36:02.531
12.429168,193,1468,-2169,110,393,235,-12274.671,8267.165,4248.302,5601.232,,,,,,2018-06-19 22:36:02.551
12.449158,415,1360,-2017,117,374,247,-12329.697,8211.792,4237.104,5570.227,,,,,,2018-06-19 22:36:02.571
12.469543,118,1007,-1822,89,363,198,-12378.55,8161.821,4228.779,5541.574,,,,,,2018-06-19 22:36:02.592
12.489136,192,1309,-2155,72,322,187,-12425.949,8109.925,4219.848,5518.444,20,-369,-519,,,2018-06-19 22:36:02.611
12.509125,377,1128,-1769,93,319,161,-12470.818,8060.588,4204.409,5501.271,,,,,,2018-06-19 22:36:02.631
12.529114,166,1023,-1824,156,299,148,-12517.563,8008.093,4186.306,5485.558,,,,,,2018-06-19 22:36:02.651
12.549072,277,1179,-2124,225,297,150,-12563.944,7954.834,4164.945,5473.26,,,,,,2018-06-19 22:36:02.671
12.569458,-16,790,-1552,128,298,154,-12608.022,7904.672,4146.069,5458.891,,,,,,2018-06-19 22:36:02.691
12.58905,189,1053,-2067,194,251,143,-12645.761,7862.63,4123.66,5449.279,11,-377,-511,,,2018-06-19 22:36:02.711
12.609009,-6,910,-2041,181,212,132,-12680.619,7821.926,4107.176,5439.294,,,,,,2018-06-19 22:36:02.731
12.629028,51,1105,-2175,92,183,115,-12711.08,7786.557,4087.72,5433.594,,,,,,2018-06-19 22:36:02.751
12.648987,95,983,-2047,128,156,104,-12737.242,7756.675,4073.105,5426.038,,,,,,2018-06-19 22:36:02.771
12.669372,-106,1008,-2241,73,130,102,-12761.171,7730.271,4065.597,5413.112,,,,,,2018-06-19 22:36:02.791
12.688965,332,968,-2028,7,134,114,-12782.508,7708.083,4055.888,5401.682,10,-383,-535,98696,23910,2018-06-19 22:36:02.811
12.708954,36,713,-1609,33,106,101,-12799.954,7690.125,4050.403,5390.068,,,,,,2018-06-19 22:36:02.831
12.728912,79,1037,-1920,6,72,77,-12815.228,7673.872,4045.061,5380.942,,,,,,2018-06-19 22:36:02.851
12.748901,129,957,-1913,47,71,72,-12828.575,7658.807,4035.429,5377.832,,,,,,2018-06-19 22:36:02.871
12.769287,24,1100,-2169,44,7,66,-12839.176,7648.624,4026.656,5373.602,,,,,,2018-06-19 22:36:02.891
12.788879,207,865,-1782,7,4,68,-12849.595,7637.459,4019.479,5369.947,7,-408,-532,,,2018-06-19 22:36:02.911
12.808868,295,921,-1792,16,41,51,-12857.109,7629.944,4012.289,5368.023,,,,,,2018-06-19 22:36:02.931
12.828857,258,994,-1926,6,-32,53,-12860.625,7628.183,4009.515,5364.175,,,,,,2018-06-19 22:36:02.951
12.848846,10,1091,-1978,-4,-53,37,-12862.532,7629.078,4000.284,5365.22,,,,,,2018-06-19 22:36:02.971
12.869201,173,983,-1995,-1,-63,49,-12862.502,7632.68,3990.859,5367.188,,,,,,2018-06-19 22:36:02.991
12.888794,-39,1103,-2021,-3,-89,46,-12859.847,7642.518,3980.097,5367.541,26,-399,-541,,,2018-06-19 22:36:03.011
12.908783,432,937,-1869,-45,-146,62,-12854.441,7655.611,3970.665,5368.818,,,,,,2018-06-19 22:36:03.031
12.928772,-63,842,-1700,5,-167,45,-12848.527,7670.975,3957.138,5371.032,,,,,,2018-06-19 22:36:03.051
12.948761,151,1356,-2331,-4,-166,48,-12838.751,7694.472,3945.437,5369.406,,,,,,2018-06-19 22:36:03.071
12.969116,44,532,-1196,-90,-210,69,-12827.693,7719.719,3930.339,5370.668,,,,,,2018-06-19 22:36:03.091
12.988708,351,1120,-2184,-16,-225,70,-12810.916,7754.149,3926.287,5364.075,27,-414,-535,,,2018-06-19 22:36:03.111
13.008697,46,761,-1572,-129,-259,83,-12796.072,7782.477,3917.189,5365.135,,,,,,2018-06-19 22:36:03.131
13.028686,341,1084,-2160,-68,-227,38,-12778.5,7814.566,3915.092,5361.899,,,,,,2018-06-19 22:36:03.151
13.048645,35,966,-1847,-153,-273,67,-12758.706,7848.008,3916.788,5358.954,,,,,,2018-06-19 22:36:03.171
13.069031,223,1014,-1999,-150,-285,41,-12736.111,7884.517,3913.611,5361.431,,,,,,2018-06-19 22:36:03.191
13.088623,186,815,-1669,-92,-297,33,-12710.846,7922.954,3920.86,5359.429,22,-398,-535,,,2018-06-19 22:36:03.211
13.108612,416,1278,-2105,-206,-290,16,-12685.944,7959.548,3928.997,5358.249,,,,,,2018-06-19 22:36:03.231
13.128601,201,724,-1262,-161,-264,6,-12667.56,7985.095,3937.046,5357.825,,,,,,2018-06-19 22:36:03.251
13.14859,325,1331,-2293,-176,-170,1,-12652.277,8008.246,3945.043,5353.499,,,,,,2018-06-19 22:36:03.271
13.168945,308,837,-1504,-123,-195,31,-12642.069,8024.439,3948.346,5350.932,,,,,,2018-06-19 22:36:03.291
13.188537,172,1240,-1857,-140,-125,29,-12631.642,8043.062,3962.327,5337.243,26,-399,-536,98705,23920,2018-06-19 22:36:03.311
13.208526,-5,983,-1652,-162,-120,61,-12624.072,8058.676,3965.369,5329.336,,,,,,2018-06-19 22:36:03.331
13.228515,428,1509,-2297,-108,-74,55,-12624.329,8065.537,3967.619,5316.657,,,,,,2018-06-19 22:36:03.351
13.248504,284,731,-1157,-107,-16,106,-12629.606,8069.278,3962.503,5302.246,,,,,,2018-06-19 22:36:03.371
13.26886,180,1591,-2271,-48,-7,114,-12637.863,8072.121,3959.461,5280.471,,,,,,2018-06-19 22:36:03.391
13.288482,73,702,-1230,-67,-16,156,-12649.534,8069.086,3953.876,5261.314,16,-396,-527,,,2018-06-19 22:36:03.410
13.308533,441,1459,-2160,1,44,145,-12660.389,8071.887,3949.546,5234.092,,,,,,2018-06-19 22:36:03.431
13.32843,127,542,-1050,-125,-44,201,-12673.924,8073.759,3941.659,5204.307,,,,,,2018-06-19 22:36:03.450
13.348419,139,1474,-2349,-98,-9,211,-12689.27,8076.964,3932.775,5168.539,,,,,,2018-06-19 22:36:03.470
13.368774,-129,1101,-1583,-84,-5,257,-12708.797,8074.444,3917.87,5135.713,,,,,,2018-06-19 22:36:03.491
13.388366,273,1197,-1884,23,78,238,-12733.795,8067.979,3897.221,5099.537,25,-395,-538,,,2018-06-19 22:36:03.510
13.408356,61,922,-1632,28,117,289,-12762.894,8061.206,3868.59,5059.145,,,,,,2018-06-19 22:36:03.530
13.428345,93,1422,-2180,20,80,342,-12794.864,8054.13,3839.96,5011.244,,,,,,2018-06-19 22:36:03.550
13.448334,-9,888,-1565,0,103,388,-12829.214,8045.372,3810.111,4960.014,,,,,,2018-06-19 22:36:03.570
13.468689,208,1147,-2164,19,132,398,-12862.229,8041.578,3775.172,4907.097,,,,,,2018-06-19 22:36:03.591
13.488281,14,983,-1719,17,46,424,-12886.729,8049.702,3736.418,4858.923,17,-388,-540,,,2018-06-19 22:36:03.610
13.50827,437,1287,-2221,27,-45,391,-12903.041,8070.188,3698.387,4810.504,,,,,,2018-06-19 22:36:03.630
13.528259,65,1169,-1665,-67,-103,422,-12931.556,8074.714,3667.812,4749.362,,,,,,2018-06-19 22:36:03.650
13.548248,121,1080,-1944,-10,116,458,-12968.342,8070.015,3626.84,4688.116,,,,,,2018-06-19 22:36:03.670
13.568603,270,876,-1953,82,100,494,-13008.956,8063.221,3564.76,4634.591,,,,,,2018-06-19 22:36:03.691
13.588226,666,1009,-1842,146,34,498,-13048.346,8057.697,3516.943,4569.544,5,-378,-540,,,2018-06-19 22:36:03.710
13.608215,102,976,-1760,22,119,498,-13098.569,8032.071,3470.637,4505.933,,,,,,2018-06-19 22:36:03.730
13.628174,272,1152,-1958,39,198,487,-13148.299,8009.658,3437.473,4425.7,,,,,,2018-06-19 22:36:03.750
13.648163,75,1308,-1737,-34,186,561,-13203.457,7983.025,3401.674,4336.368,,,,,,2018-06-19 22:36:03.770
13.668518,324,982,-1848,0,336,591,-13257.469,7956.453,3367.29,4246.309,,,,,,2018-06-19 22:36:03.791
13.688141,185,981,-2032,47,366,587,-13318.029,7917.148,3335.82,4154.107,2,-372,-534,98704,23920,2018-06-19 22:36:03.810
13.70813,212,966,-1719,-15,326,582,-13380.196,7873.678,3303.88,4061.448,,,,,,2018-06-19 22:36:03.830
13.728119,238,961,-1845,-19,356,579,-13434.836,7838.326,3281.501,3966.486,,,,,,2018-06-19 22:36:03.850
13.748077,-45,818,-1518,-45,361,554,-13491.373,7793.542,3267.502,3873.297,,,,,,2018-06-19 22:36:03.870
13.768463,155,1351,-2222,-109,446,518,-13542.45,7752.79,3267.319,3775.758,,,,,,2018-06-19 22:36:03.890
13.788025,138,583,-1335,-157,396,505,-13590.128,7712.471,3269.211,3684.275,-12,-377,-516,,,2018-06-19 22:36:03.910
13.808044,169,1243,-2123,-165,348,464,-13634.882,7676.256,3266.789,3595.637,,,,,,2018-06-19 22:36:03.930
13.828003,-114,1124,-2093,-147,327,475,-13679.367,7636.365,3260.506,3516.444,,,,,,2018-06-19 22:36:03.950
13.847992,280,810,-1691,-119,305,423,-13717.697,7603.214,3253.472,3444.744,,,,,,2018-06-19 22:36:03.970
13.868347,30,1025,-2076,-85,275,374,-13750.294,7574.41,3246.467,3384.317,,,,,,2018-06-19 22:36:03.990
13.88797,254,590,-1316,-71,188,324,-13778.328,7549.504,3238.363,3333.332,-22,-387,-520,,,2018-06-19 22:36:04.010
13.907959,-33,1421,-2397,-39,177,280,-13799.837,7532.805,3235.348,3284.706,,,,,,2018-06-19 22:36:04.030
13.927917,-8,810,-1585,-100,85,260,-13818.846,7519.326,3223.49,3247.117,,,,,,2018-06-19 22:36:04.050
13.947906,120,1221,-2068,-38,52,246,-13831.972,7516.83,3208.572,3211.591,,,,,,2018-06-19 22:36:04.070
13.968262,20,1147,-1904,-45,25,240,-13845.23,7511.938,3200.142,3174.099,,,,,,2018-06-19 22:36:04.090
13.987854,150,948,-1842,-96,0,251,-13857.17,7509.997,3186.034,3140.604,-26,-383,-510,,,2018-06-19 22:36:04.110
14.007873,-103,1267,-2301,-18,14,238,-13868.053,7509.032,3172.508,3108.403,,,,,,2018-06-19 22:36:04.130
14.027832,377,892,-1660,-63,19,235,-13880.161,7506.316,3155.64,3077.941,,,,,,2018-06-19 22:36:04.150
14.047821,52,1235,-2203,-33,-7,238,-13890.396,7508.504,3139.881,3042.342,,,,,,2018-06-19 22:36:04.170
14.068176,252,562,-1193,-51,-9,260,-13900.322,7509.715,3126.749,3007.341,,,,,,2018-06-19 22:36:04.190
14.087799,131,981,-1791,-24,-20,254,-13909.557,7513.478,3110.708,2971.663,-29,-384,-513,,,2018-06-19 22:36:04.210
14.107788,135,980,-2031,-43,-8,271,-13921.832,7511.367,3096.732,2933.876,,,,,,2018-06-19 22:36:04.230
14.127777,366,1019,-1874,-80,16,269,-13933.476,7510.482,3088.102,2889.63,,,,,,2018-06-19 22:36:04.250
14.147735,-16,1538,-2381,-132,25,273,-13950.768,7498.833,3075.381,2849.746,,,,,,2018-06-19 22:36:04.270
14.168121,322,821,-1526,26,100,265,-13969.415,7485.295,3062.525,2807.52,,,,,,2018-06-19 22:36:04.290
14.187713,153,1219,-1914,-60,100,280,-13987.501,7472.182,3051.312,2764.277,-38,-369,-508,98701,23910,2018-06-19 22:36:04.310
14.207702,111,965,-1554,-32,109,277,-14004.32,7461.639,3037.918,2722.032,,,,,,2018-06-19 22:36:04.330
14.227661,164,1265,-1937,-9,94,267,-14023.812,7448.474,3021.145,2676.011,,,,,,2018-06-19 22:36:04.350
14.24765,134,1083,-1972,-47,101,318,-14045.351,7431.088,3003.912,2630.396,,,,,,2018-06-19 22:36:04.370
14.268036,272,1067,-1713,-13,98,310,-14067.117,7413.675,2982.669,2587.035,,,,,,2018-06-19 22:36:04.390
14.287628,72,1527,-2430,26,104,284,-14088.012,7398.532,2958.02,2544.639,-36,-372,-504,,,2018-06-19 22:36:04.410
14.307617,238,744,-1429,14,84,326,-14108.89,7383.618,2926.937,2507.964,,,,,,2018-06-19 22:36:04.430
14.327606,99,1177,-2090,61,45,293,-14122.199,7381.195,2901.202,2469.799,,,,,,2018-06-19 22:36:04.450
14.347564,-66,1013,-2024,43,-25,279,-14138.931,7369.806,2873.155,2440.697,,,,,,2018-06-19 22:36:04.470
14.36792,-40,950,-1612,40,29,249,-14153.942,7360.255,2848.876,2410.788,,,,,,2018-06-19 22:36:04.490
14.387543,-4,1254,-2238,66,44,238,-14167.036,7352.481,2823.315,2387.558,-24,-368,-507,,,2018-06-19 22:36:04.510
14.407532,-12,677,-1350,123,8,207,-14177.792,7346.354,2799.267,2370.831,,,,,,2018-06-19 22:36:04.530
14.427521,185,1026,-1873,99,7,170,-14185.825,7343.683,2779.694,2354.024,,,,,,2018-06-19 22:36:04.550
14.447479,29,1059,-2193,46,-27,170,-14192.146,7343.694,2758.095,2341.261,,,,,,2018-06-19 22:36:04.569
14.467834,200,1049,-1790,57,-65,137,-14197.143,7345.868,2739.533,2325.888,,,,,,2018-06-19 22:36:04.590
14.487457,40,1434,-2367,30,-62,167,-14202.612,7347.041,2726.173,2304.391,-45,-357,-510,,,2018-06-19 22:36:04.609
14.507446,-79,930,-1525,-19,-63,183,-14208.85,7348.828,2705.395,2284.635,,,,,,2018-06-19 22:36:04.629
14.527496,473,1140,-2023,111,-44,190,-14215.219,7350.641,2687.746,2259.883,,,,,,2018-06-19 22:36:04.649
14.547424,-208,1376,-2284,-14,-33,212,-14224.338,7347.791,2670.634,2231.886,,,,,,2018-06-19 22:36:04.669
14.567749,170,1047,-1583,37,-3,240,-14234.061,7346.529,2652.286,2195.639,,,,,,2018-06-19 22:36:04.690
14.587372,158,1075,-2009,-15,-6,288,-14242.263,7348.783,2634.301,2156.205,-41,-365,-502,,,2018-06-19 22:36:04.709
14.607361,-9,1126,-1768,-19,-1,273,-14257.094,7341.061,2607,2117.33,,,,,,2018-06-19 22:36:04.729
14.62735,458,1059,-1868,37,39,307,-14270.444,7334.196,2586.641,2075.746,,,,,,2018-06-19 22:36:04.749
14.647339,-180,1273,-1968,25,46,280,-14285.35,7323.664,2563.548,2038.718,,,,,,2018-06-19 22:36:04.769
14.667694,269,901,-1667,84,55,273,-14300.721,7310.44,2545.13,2001.147,,,,,,2018-06-19 22:36:04.790
14.687286,-190,1297,-2203,23,73,244,-14318.905,7294.367,2517.832,1963.959,-38,-359,-492,98724,23900,2018-06-19 22:36:04.809
14.707275,-189,1048,-1787,66,119,297,-14338.849,7273.062,2499.111,1920.902,,,,,,2018-06-19 22:36:04.829
14.727264,312,907,-1629,-41,124,291,-14359.046,7251.829,2475.175,1880.885,,,,,,2018-06-19 22:36:04.849
14.747253,85,1508,-2467,47,119,297,-14379.358,7229.983,2455.201,1835.431,,,,,,2018-06-19 22:36:04.869
14.767608,368,796,-1500,-48,140,338,-14400.104,7207.147,2440.385,1781.57,,,,,,2018-06-19 22:36:04.890
14.787201,59,1252,-2169,-55,136,334,-14422.643,7182.641,2419.565,1725.741,-33,-362,-489,,,2018-06-19 22:36:04.909
14.80719,153,849,-1829,22,165,362,-14447.008,7154.977,2394.751,1670.587,,,,,,2018-06-19 22:36:04.929
14.827179,-95,1448,-2111,25,181,363,-14471.426,7127.542,2368.994,1612.223,,,,,,2018-06-19 22:36:04.949
14.847168,67,1070,-2235,12,178,404,-14498.526,7093.61,2341.502,1557.639,,,,,,2018-06-19 22:36:04.969
14.867523,31,848,-1698,22,218,364,-14523.119,7063.754,2316.953,1499.852,,,,,,2018-06-19 22:36:04.990
14.887115,405,1213,-2191,22,189,362,-14546.995,7033.809,2292.989,1445.025,-34,-360,-483,,,2018-06-19 22:36:05.009
14.907104,124,967,-1928,56,183,366,-14572.341,6999.264,2270.302,1392.241,,,,,,2018-06-19 22:36:05.029
14.927093,166,1193,-2191,41,223,336,-14597.609,6962.857,2251.46,1339.7,,,,,,2018-06-19 22:36:05.049
14.947052,200,1107,-2033,6,198,332,-14621.403,6928.936,2230.964,1289.443,,,,,,2018-06-19 22:36:05.069
14.967438,90,954,-1832,44,214,331,-14648.154,6889.623,2203.86,1242.22,,,,,,2018-06-19 22:36:05.089
14.98703,228,1101,-2053,68,229,311,-14677.088,6844.748,2174.724,1199.377,-46,-351,-493,,,2018-06-19 22:36:05.109
15.007019,-115,1077,-1856,93,265,277,-14703.038,6805.745,2139.216,1166.909,,,,,,2018-06-19 22:36:05.129
15.026977,26,845,-1650,123,203,258,-14726.059,6771.317,2106.757,1135.546,,,,,,2018-06-19 22:36:05.149
15.046997,155,861,-2080,150,168,251,-14749.693,6738.077,2067.012,1098.987,,,,,,2018-06-19 22:36:05.169
15.067352,124,973,-1989,114,174,319,-14773.583,6702.92,2029.779,1061.852,,,,,,2018-06-19 22:36:05.189
15.086944,-99,961,-1819,106,156,279,-14792.962,6673.862,2003.644,1024.055,-41,-358,-479,,,2018-06-19 22:36:05.209
15.106933,109,1201,-2386,80,161,268,-14809.425,6651.373,1977.196,983.004,,,,,,2018-06-19 22:36:05.229
15.126922,-67,848,-1878,20,135,315,-14828.857,6623.047,1949.579,935.312,,,,,,2018-06-19 22:36:05.249
15.146911,357,799,-1831,49,146,347,-14847.361,6595.424,1927.74,880.636,,,,,,2018-06-19 22:36:05.269
15.167267,21,978,-1901,3,159,355,-14865.908,6566.825,1908.551,821.256,,,,,,2018-06-19 22:36:05.289
15.186859,203,934,-1707,-8,191,359,-14885.4,6534.921,1892.244,757.972,-42,-352,-496,98720,23900,2018-06-19 22:36:05.309
15.206848,106,1056,-1932,-25,206,382,-14908.278,6493.908,1877.79,694.071,,,,,,2018-06-19 22:36:05.329
15.226837,125,844,-1625,-84,268,376,-14933.883,6445.53,1863.868,629.054,,,,,,2018-06-19 22:36:05.349
15.246826,80,889,-1771,-29,321,384,-14963.209,6388.793,1845.092,562.81,,,,,,2018-06-19 22:36:05.369
15.267181,-1,1050,-1934,-5,340,385,-14995.797,6325.631,1817.318,495.218,,,,,,2018-06-19 22:36:05.389
15.286804,-183,762,-1785,53,386,446,-15029.948,6258.221,1788.081,416.548,-34,-363,-481,,,2018-06-19 22:36:05.409
15.306762,124,1052,-1901,-30,427,481,-15061.987,6194.537,1757.519,332.913,,,,,,2018-06-19 22:36:05.429
15.326751,-58,1180,-2235,0,376,511,-15092.414,6132.554,1728.285,243.498,,,,,,2018-06-19 22:36:05.449
15.346741,262,434,-1326,29,386,538,-15122.074,6069.537,1702.228,146.467,,,,,,2018-06-19 22:36:05.469
15.367096,15,1142,-2178,-47,391,563,-15150.597,6006.453,1677.928,43.7,,,,,,2018-06-19 22:36:05.489
15.386688,-12,891,-1904,-87,401,598,-15181.512,5936.149,1648.026,-57.235,-36,-356,-488,,,2018-06-19 22:36:05.509
15.406677,-120,802,-1911,-25,462,576,-15210.217,5865.999,1627.244,-163.887,,,,,,2018-06-19 22:36:05.529
15.426666,23,890,-1957,-34,419,601,-15236.538,5798.005,1610.385,-270.45,,,,,,2018-06-19 22:36:05.549
15.446655,-184,1026,-2001,-110,391,596,-15260.881,5731.669,1595.829,-377.159,,,,,,2018-06-19 22:36:05.569
15.46701,37,797,-1673,-71,385,583,-15284.366,5669.859,1565.569,-474.653,,,,,,2018-06-19 22:36:05.589
15.486633,-95,823,-2111,13,370,565,-15305.448,5613.565,1528.775,-573.962,-33,-352,-489,,,2018-06-19 22:36:05.609
15.506592,-203,941,-2060,-5,337,611,-15323.328,5560.586,1500.555,-677.69,,,,,,2018-06-19 22:36:05.629
15.526581,-210,860,-1846,-48,301,613,-15339.34,5512.563,1465.286,-777.597,,,,,,2018-06-19 22:36:05.649
15.54657,-60,1156,-2461,51,333,593,-15354.313,5465.957,1425.82,-877.99,,,,,,2018-06-19 22:36:05.669
15.566925,-245,653,-1657,3,280,619,-15368.063,5418.899,1390.528,-979.812,,,,,,2018-06-19 22:36:05.689
15.586517,-125,837,-2005,-20,309,603,-15378.865,5374.526,1363.467,-1086.901,-33,-345,-501,,,2018-06-19 22:36:05.709
15.606506,-99,1038,-2159,-62,290,630,-15389.899,5325.933,1340.403,-1193.398,,,,,,2018-06-19 22:36:05.729
15.626495,-230,780,-2035,-108,289,633,-15401.073,5275.802,1316.563,-1294.198,,,,,,2018-06-19 22:36:05.748
15.646484,-14,807,-1844,-39,307,590,-15409.77,5232.907,1286.87,-1391.072,,,,,,2018-06-19 22:36:05.768
15.666931,-72,1071,-2314,-30,239,577,-15418.437,5185.394,1263.728,-1490.606,,,,,,2018-06-19 22:36:05.789
15.686462,-150,930,-1828,-74,243,580,-15424.951,5140.239,1244.545,-1592.283,-35,-350,-478,98729,23900,2018-06-19 22:36:05.808
15.706451,-175,1160,-2111,-78,255,592,-15428.115,5100.773,1227.462,-1698.277,,,,,,2018-06-19 22:36:05.828
15.72641,-84,1074,-2075,-100,208,616,-15430.328,5062.812,1206.693,-1803.399,,,,,,2018-06-19 22:36:05.848
15.74646,-95,655,-1592,-92,206,605,-15432.211,5025.509,1175.933,-1908.861,,,,,,2018-06-19 22:36:05.868
15.766754,-32,1060,-1881,47,225,647,-15435.643,4981.666,1138.153,-2015.926,,,,,,2018-06-19 22:36:05.889
15.786377,-106,874,-1815,-11,289,651,-15441.598,4932.213,1086.873,-2117.659,,,,,,2018-06-19 22:36:05.908
15.806335,-50,856,-1834,145,315,643,-15445.866,4879.526,1046.483,-2226.156,-32,-341,-490,,,2018-06-19 22:36:05.928
15.826324,52,752,-1813,-31,330,638,-15448.601,4827.636,1012.466,-2333.451,,,,,,2018-06-19 22:36:05.948
15.846313,-159,937,-2223,35,286,636,-15447.067,4785.824,977.322,-2442.187,,,,,,2018-06-19 22:36:05.968
15.866668,91,763,-1826,-32,219,648,-15443.728,4749.364,943.444,-2545.618,,,,,,2018-06-19 22:36:05.989
15.886322,-34,1008,-2060,33,181,611,-15440.072,4716.873,901.365,-2641.641,,,,,,2018-06-19 22:36:06.008
15.906311,-76,1006,-1829,45,185,594,-15435.767,4682.931,871.049,-2735.682,-22,-334,-495,,,2018-06-19 22:36:06.028
15.926269,-142,743,-1988,55,196,556,-15432.925,4652.273,820.454,-2818.419,,,,,,2018-06-19 22:36:06.048
15.946258,77,925,-2081,150,194,538,-15428.486,4619.986,779.676,-2906.042,,,,,,2018-06-19 22:36:06.068
15.966644,-127,1063,-1955,49,178,575,-15425.893,4579.41,737.891,-2993.621,,,,,,2018-06-19 22:36:06.089
15.986236,-36,872,-1958,185,290,527,-15425.381,4534.298,681.003,-3077.246,,,,,,2018-06-19 22:36:06.108
16.006225,-97,855,-1835,128,273,567,-15424.446,4483.428,632.469,-3165.556,-11,-338,-489,,,2018-06-19 22:36:06.128
16.026214,-143,903,-1975,106,323,566,-15421.981,4435.275,581.076,-3254.018,,,,,,2018-06-19 22:36:06.148
16.046173,-64,908,-1967,121,269,567,-15418.04,4391.989,529.126,-3339.153,,,,,,2018-06-19 22:36:06.168
16.066559,7,940,-2092,183,271,545,-15417.438,4344.224,461.994,-3413.551,,,,,,2018-06-19 22:36:06.189
16.086151,-170,1013,-2044,201,335,497,-15418.46,4285.507,400.599,-3490.055,,,,,,2018-06-19 22:36:06.208
16.106109,-234,1065,-2074,201,351,526,-15418.341,4226.74,345.805,-3567.252,4,-337,-495,,,2018-06-19 22:36:06.228
16.126129,-122,919,-2044,97,313,514,-15414.249,4180.968,299.987,-3642.236,,,,,,2018-06-19 22:36:06.248
16.146087,-65,952,-2298,139,214,482,-15404.395,4150.541,254.1,-3721.355,,,,,,2018-06-19 22:36:06.268
16.166473,20,596,-1820,126,130,556,-15393.593,4114.425,194.281,-3808.739,,,,,,2018-06-19 22:36:06.288
16.186065,-206,898,-2287,234,289,600,-15384.526,4062.741,119.058,-3902.788,4,-337,-495,98725,23890,2018-06-19 22:36:06.308
16.206054,-274,746,-2172,203,347,648,-15375.344,4004.651,57.951,-3999.205,19,-327,-490,,,2018-06-19 22:36:06.328
16.226043,-195,531,-2019,125,311,639,-15363.651,3954.594,5.192,-4093.265,,,,,,2018-06-19 22:36:06.348
16.246002,-155,828,-2152,134,269,578,-15353.32,3905.298,-35.711,-4178.323,,,,,,2018-06-19 22:36:06.368
16.266388,-187,822,-2154,33,247,522,-15340.318,3866.395,-72.148,-4260.969,,,,,,2018-06-19 22:36:06.388
16.28598,-189,629,-2101,73,179,527,-15324.873,3827.777,-110.952,-4349.657,,,,,,2018-06-19 22:36:06.408
16.305969,-165,616,-2206,112,212,570,-15310.561,3787.527,-163.688,-4432.831,35,-322,-488,,,2018-06-19 22:36:06.428
16.325958,-417,751,-2101,128,222,534,-15296.789,3747.424,-198.151,-4512.342,,,,,,2018-06-19 22:36:06.448
16.345917,-301,630,-2067,0,172,495,-15279.599,3720.657,-208.689,-4591.562,,,,,,2018-06-19 22:36:06.468
16.366302,-7,971,-2310,-83,50,476,-15257.788,3717.005,-208.543,-4666.446,,,,,,2018-06-19 22:36:06.488
16.385895,-138,650,-2120,-45,-104,451,-15235.676,3718.482,-221.102,-4736.414,,,,,,2018-06-19 22:36:06.508
16.405884,1228,-3425,1642,54,-46,427,-15229.841,3712.099,-254.417,-4758.462,39,-331,-466,,,2018-06-19 22:36:06.528
16.425873,5224,1995,173,184,-232,68,-15266.165,3491.085,-453.818,-4794.373,,,,,,2018-06-19 22:36:06.548
16.445831,13007,4127,-3423,2069,3533,391,-15314.815,2878.053,-995.926,-4961.532,,,,,,2018-06-19 22:36:06.568
16.466217,-2741,1107,-940,869,3934,2716,-15310.778,1947.491,-1576.232,-5266.712,,,,,,2018-06-19 22:36:06.588
16.485809,-3664,1355,-1928,2264,5287,2574,-15179.712,1506.489,-1628.267,-5752.477,,,,,,2018-06-19 22:36:06.608
16.505798,-2911,-542,-3739,-2542,540,3614,-14985.883,1427.66,-1170.748,-6360.022,49,-309,-469,,,2018-06-19 22:36:06.628
16.525787,1374,1574,-3970,-1464,-2459,3135,-14824.553,1603.703,-670.194,-6756.258,,,,,,2018-06-19 22:36:06.648
16.545746,2180,1150,-3510,-2933,-1924,1865,-14741.938,1452.849,-430.492,-6986.745,,,,,,2018-06-19 22:36:06.668
16.566131,2777,493,-3835,-886,1150,1179,-14659.913,1072.998,-484.002,-7220.582,,,,,,2018-06-19 22:36:06.688
16.585724,1761,755,-4068,-800,2618,1691,-14574.048,486.057,-657.519,-7440.697,,,,,,2018-06-19 22:36:06.708
16.605713,382,372,-3958,-536,3759,1348,-14480.763,-164.757,-834.56,-7617.041,-96,-349,-440,,,2018-06-19 22:36:06.728
16.625702,899,873,-4877,-1048,3523,1288,-14362.897,-751.475,-833.243,-7802.795,,,,,,2018-06-19 22:36:06.748
16.64566,1060,1090,-5240,-1621,3000,1418,-14229.551,-1370.773,-687.085,-7975.225,,,,,,2018-06-19 22:36:06.768
16.666046,1335,-35,-4453,-2534,2905,1417,-14057.121,-1970.972,-530.438,-8164.968,,,,,,2018-06-19 22:36:06.788
16.685638,33,1069,-4568,-2596,2580,1757,-13856.584,-2643.231,-358.032,-8325.602,-96,-349,-440,98734,23890,2018-06-19 22:36:06.808
16.705627,-90,756,-4532,-2395,2895,1632,-13631.444,-3264.251,-115.318,-8482.365,15,-249,-427,,,2018-06-19 22:36:06.828
16.725616,-437,1351,-4305,-3072,2518,1643,-13406.337,-3850.215,169.672,-8593.754,,,,,,2018-06-19 22:36:06.848
16.745605,-579,1616,-4176,-2788,2040,1486,-13193.505,-4320.995,451.374,-8688.619,,,,,,2018-06-19 22:36:06.868
16.76596,-136,1953,-3549,-2621,1488,1398,-12995.992,-4729.694,747.445,-8752.768,,,,,,2018-06-19 22:36:06.888
16.785553,-2,1800,-3417,-2394,1314,1154,-12809.687,-5081.124,985.744,-8806.692,,,,,,2018-06-19 22:36:06.908
16.805542,68,1634,-2682,-1972,1209,1076,-12614.641,-5398.744,1182.776,-8874.733,59,-217,-364,,,2018-06-19 22:36:06.928
16.825531,260,2835,-2577,-1763,1256,1175,-12417.569,-5672.22,1313.601,-8963.246,,,,,,2018-06-19 22:36:06.948
16.845489,289,1860,-1998,-912,1253,987,-12250.189,-5897.735,1340.666,-9043.651,,,,,,2018-06-19 22:36:06.967
16.865875,-31,1257,-1690,-698,1487,602,-12076.314,-6178.01,1351.33,-9088.683,,,,,,2018-06-19 22:36:06.988
16.885467,132,1760,-1717,-1174,1486,677,-11909.995,-6396.988,1394.088,-9150,,,,,,2018-06-19 22:36:07.007
16.905456,393,1525,-1493,-610,1086,800,-11752.723,-6545.738,1396.236,-9247.311,106,-173,-222,,,2018-06-19 22:36:07.027
16.925445,2,1333,-670,-303,1046,815,-11557.115,-6741.927,1400.055,-9351.727,,,,,,2018-06-19 22:36:07.047
16.945434,-107,1485,-494,-563,1410,1014,-11322.274,-6951.024,1446.4,-9478.013,,,,,,2018-06-19 22:36:07.067
16.965881,-629,1579,68,-691,1247,1350,-11071.557,-7143.68,1489.495,-9623.165,,,,,,2018-06-19 22:36:07.088
16.985412,169,1768,-33,-510,1335,1388,-10821.313,-7300.709,1575.893,-9775.009,,,,,,2018-06-19 22:36:07.107
17.005371,-397,1569,-50,-615,951,1602,-10522.181,-7465.111,1658.995,-9961.877,62,-150,-163,,,2018-06-19 22:36:07.127
17.02536,-4,2349,-299,-395,1543,1970,-10155.614,-7629.198,1663.744,-10214.02,,,,,,2018-06-19 22:36:07.147
17.045349,-202,2258,-1053,218,1922,2051,-9787.742,-7763.118,1614.477,-10476.784,,,,,,2018-06-19 22:36:07.167
17.065704,75,2060,-1239,238,1409,2067,-9413.637,-7821.434,1595.776,-10774.856,,,,,,2018-06-19 22:36:07.188
17.085327,-523,1162,192,598,1620,2342,-8973.826,-7871.439,1522.832,-11118.782,,,,,,2018-06-19 22:36:07.207
17.105285,-68,2428,-1289,785,1860,2614,-8533.147,-7873.976,1471.384,-11465.442,92,-135,-114,,,2018-06-19 22:36:07.227
17.125274,-926,2098,-953,1190,1801,2576,-8062.513,-7848.738,1293.848,-11838.691,,,,,,2018-06-19 22:36:07.247
17.145263,-62,1900,-1239,1462,2254,2469,-7589.016,-7761.803,1128.592,-12219.777,,,,,,2018-06-19 22:36:07.267
17.165619,-1109,651,-884,1834,1917,2636,-7080.804,-7655.999,900.294,-12604.475,,,,,,2018-06-19 22:36:07.288
17.185211,-1249,-13,-1976,1896,2317,2588,-6558.044,-7534.922,716.221,-12966.86,92,-135,-114,98744,23890,2018-06-19 22:36:07.307
17.2052,-879,354,-1960,1637,1712,2970,-6077.779,-7403.417,675.611,-13275.127,144,-139,-116,,,2018-06-19 22:36:07.327
17.225189,-817,371,-1970,1121,1273,2593,-5637.595,-7278.539,577.096,-13540.413,,,,,,2018-06-19 22:36:07.347
17.245178,-1321,-58,-2324,1358,1272,2358,-5228.876,-7117.227,491.221,-13791.232,,,,,,2018-06-19 22:36:07.367
17.265533,-1010,-386,-2284,1467,1091,2207,-4840.9,-6941.228,464.06,-14021.595,,,,,,2018-06-19 22:36:07.388
17.285156,-448,-432,-2185,1255,736,2331,-4460.015,-6782.993,471.53,-14223.655,,,,,,2018-06-19 22:36:07.407
17.305115,-417,-129,-1954,1063,647,2244,-4088.5,-6624.701,459.357,-14409.092,309,-173,-192,,,2018-06-19 22:36:07.427
17.325104,-410,-70,-2454,1111,749,2091,-3754.243,-6466.342,408.62,-14572.596,,,,,,2018-06-19 22:36:07.447
17.345093,-554,-224,-2058,987,904,1685,-3461.244,-6357.356,321.903,-14694.748,,,,,,2018-06-19 22:36:07.467
17.365448,-733,17,-2585,772,940,1414,-3208.576,-6261.217,258.746,-14794.279,,,,,,2018-06-19 22:36:07.487
17.38504,-585,-494,-1907,626,677,1256,-2988.907,-6174.395,237.125,-14876.911,,,,,,2018-06-19 22:36:07.507
17.405029,-151,-320,-1539,455,374,1221,-2793.54,-6094.395,253.794,-14947.424,394,-229,-251,,,2018-06-19 22:36:07.527
17.425018,2,-73,-1458,426,258,1101,-2603.856,-6031.199,258.987,-15007.096,,,,,,2018-06-19 22:36:07.547
17.445007,-48,-78,-1948,344,445,1012,-2424.562,-6000.804,221.51,-15049.858,,,,,,2018-06-19 22:36:07.567
17.465362,-253,-24,-1573,134,565,856,-2248.44,-5997.785,154.592,-15079.212,,,,,,2018-06-19 22:36:07.587
17.484985,-381,112,-1443,80,806,780,-2072.801,-6011.627,74.132,-15099.463,,,,,,2018-06-19 22:36:07.607
17.504974,66,250,-1100,-23,779,788,-1893.267,-6018.065,11.507,-15120.639,439,-274,-308,,,2018-06-19 22:36:07.627
17.524933,48,474,-1110,72,683,871,-1695.302,-6011.166,-67.791,-15146.705,,,,,,2018-06-19 22:36:07.647
17.544922,221,549,-1170,179,937,921,-1468.219,-6002.513,-166.087,-15173.069,,,,,,2018-06-19 22:36:07.667
17.565277,1,949,-1498,126,1032,1060,-1222.635,-5959.423,-302.291,-15209.684,,,,,,2018-06-19 22:36:07.687
17.584869,273,791,-1358,460,1352,1035,-940.377,-5924.127,-465.78,-15239.386,,,,,,2018-06-19 22:36:07.707
17.604858,111,1250,-1290,330,1578,1201,-627.547,-5878.225,-665.434,-15265.821,444,-322,-327,,,2018-06-19 22:36:07.727
17.624847,19,899,-1413,485,1716,1325,-286.255,-5797.15,-842.854,-15298.24,,,,,,2018-06-19 22:36:07.747
17.644836,-150,1081,-1736,615,1548,1553,96.659,-5737.571,-992.844,-15314.066,,,,,,2018-06-19 22:36:07.767
17.665222,-165,733,-1282,353,1624,1821,509.978,-5699.299,-1160.225,-15308.404,,,,,,2018-06-19 22:36:07.787
17.684814,49,938,-1379,332,1832,1885,944.452,-5639.491,-1352.551,-15294.123,444,-322,-327,98757,23890,2018-06-19 22:36:07.807
17.704803,171,889,-1256,514,2057,1929,1412.075,-5542.612,-1581.843,-15271.5,423,-365,-366,,,2018-06-19 22:36:07.827
17.724792,230,1060,-1684,707,2294,2058,1910.127,-5415.144,-1826.594,-15235.702,,,,,,2018-06-19 22:36:07.847
17.744751,232,814,-1978,833,2395,2159,2443.309,-5274.682,-2078.147,-15176.452,,,,,,2018-06-19 22:36:07.867
17.765106,-465,694,-1925,708,2615,2394,2995.729,-5205.069,-2361.026,-15059.676,,,,,,2018-06-19 22:36:07.887
17.784729,-641,310,-2085,170,2395,2545,3526.496,-5178.172,-2616.56,-14911.05,,,,,,2018-06-19 22:36:07.907
17.804687,-403,145,-2402,-119,2500,2449,4047.502,-5156.379,-2877.134,-14737.266,386,-424,-418,,,2018-06-19 22:36:07.927
17.824707,-444,177,-2633,-124,2509,2472,4574.609,-5134.668,-3145.168,-14534.493,,,,,,2018-06-19 22:36:07.947
17.844665,-816,46,-2813,-149,2582,2510,5089.923,-5112.026,-3399.392,-14312.213,,,,,,2018-06-19 22:36:07.967
17.865021,-1066,518,-2901,-322,2394,2509,5556.763,-5142.913,-3625.685,-14069.921,,,,,,2018-06-19 22:36:07.987
17.884643,-1221,383,-2942,-530,2099,2337,5953.797,-5213.817,-3831.706,-13824.684,,,,,,2018-06-19 22:36:08.007
17.904632,-809,238,-3185,-923,1684,2126,6287.417,-5318.606,-4006.441,-13585.458,329,-494,-513,,,2018-06-19 22:36:08.027
17.924591,-549,476,-3222,-1022,1514,1889,6592.513,-5420.972,-4207.296,-13337.388,,,,,,2018-06-19 22:36:08.047
17.94458,-16,681,-3348,-1060,1764,1700,6878.031,-5512.79,-4447.169,-13075.165,,,,,,2018-06-19 22:36:08.067
17.964966,-413,664,-3329,-1054,1966,1554,7161.272,-5523.478,-4720.75,-12820.192,,,,,,2018-06-19 22:36:08.087
17.984558,-785,1038,-3157,-947,2170,1402,7418.841,-5556.58,-4992.014,-12553.901,,,,,,2018-06-19 22:36:08.107
18.004516,-1118,1462,-3360,-924,2012,1294,7627.766,-5595.71,-5220.353,-12316.191,243,-528,-550,,,2018-06-19 22:36:08.127
18.024505,-981,1469,-3245,-968,1475,1161,7795.039,-5648.282,-5379.58,-12117.335,,,,,,2018-06-19 22:36:08.147
18.044494,-684,1653,-3293,-758,1146,1002,7951.215,-5701.728,-5497.201,-11936.694,,,,,,2018-06-19 22:36:08.166
18.06485,-395,1896,-3387,-622,985,1098,8137.995,-5752.671,-5602.257,-11735.84,,,,,,2018-06-19 22:36:08.187
18.084472,-611,1902,-3404,-595,1145,1326,8361.376,-5786.871,-5702.142,-11511.756,,,,,,2018-06-19 22:36:08.206
18.104461,-495,1990,-3547,-484,1197,1489,8599.788,-5822.845,-5770.232,-11281.754,173,-505,-558,,,2018-06-19 22:36:08.226
18.12445,-721,2132,-3893,-396,1074,1632,8850.876,-5864.602,-5811.281,-11042.322,,,,,,2018-06-19 22:36:08.246
18.144439,-497,2212,-3886,-372,1004,1802,9125.811,-5901.902,-5822.731,-10789.734,,,,,,2018-06-19 22:36:08.266
18.164795,-835,1998,-3660,-166,1013,1979,9420.765,-5924.723,-5809.963,-10527.422,,,,,,2018-06-19 22:36:08.287
18.184448,-749,2141,-3863,-68,989,2097,9724.275,-5946.182,-5760.18,-10263.388,173,-505,-558,98763,23890,2018-06-19 22:36:08.306
18.204376,-874,2128,-3562,117,871,2193,10031.953,-5956.126,-5687.941,-9998.361,125,-467,-547,,,2018-06-19 22:36:08.326
18.224365,-579,1941,-3544,214,832,2226,10335.271,-5970.734,-5592.811,-9730.796,,,,,,2018-06-19 22:36:08.346
18.244324,-730,2265,-3584,251,805,2254,10642.612,-5984.831,-5496.894,-9441.196,,,,,,2018-06-19 22:36:08.366
18.264709,-804,1684,-3231,262,731,2416,10955.581,-5976.598,-5372.889,-9155.49,,,,,,2018-06-19 22:36:08.387
18.284302,-605,1753,-2872,320,825,2371,11255.961,-5982.452,-5267.742,-8843.072,,,,,,2018-06-19 22:36:08.406
18.304291,-300,1641,-2820,278,921,2453,11575.174,-5975.763,-5147.061,-8499.929,78,-451,-550,,,2018-06-19 22:36:08.426
18.32428,-434,2088,-3019,286,985,2664,11909.238,-5940.039,-5021.003,-8130.863,,,,,,2018-06-19 22:36:08.446
18.344238,-669,2141,-2952,419,1111,2725,12237.727,-5872.301,-4884.373,-7767.396,,,,,,2018-06-19 22:36:08.466
18.364624,-535,597,-2761,687,1199,2597,12553.892,-5791.35,-4720.946,-7416.748,,,,,,2018-06-19 22:36:08.487
18.384216,-339,1242,-3035,583,1032,2634,12839.432,-5787.173,-4581.82,-7007.137,,,,,,2018-06-19 22:36:08.506
18.404205,-185,739,-2696,126,728,2954,13098.437,-5824.036,-4451.564,-6567.386,53,-460,-549,,,2018-06-19 22:36:08.526
18.424194,-364,412,-2534,-96,668,2908,13326.931,-5853.427,-4358.653,-6129.263,,,,,,2018-06-19 22:36:08.546
18.444153,-302,438,-2144,-259,817,2698,13545.134,-5839.025,-4258.528,-5721.494,,,,,,2018-06-19 22:36:08.566
18.464538,-104,646,-1729,25,881,2509,13754.061,-5800.648,-4136.384,-5338.917,,,,,,2018-06-19 22:36:08.587
18.484131,-47,896,-1600,172,869,2400,13956.417,-5736.556,-3987.976,-4984.156,,,,,,2018-06-19 22:36:08.606
18.50412,-110,1037,-1431,505,942,2256,14157.818,-5642.638,-3815.23,-4647.181,21,-447,-541,,,2018-06-19 22:36:08.626
18.524109,70,1007,-1626,648,1017,2211,14354.373,-5534.057,-3604.798,-4332.096,,,,,,2018-06-19 22:36:08.646
18.544067,88,1079,-1865,947,978,2159,14544.394,-5407.497,-3400.793,-4011.187,,,,,,2018-06-19 22:36:08.666
18.564453,-215,667,-1729,669,1092,2150,14720.286,-5270.696,-3251.369,-3660.188,,,,,,2018-06-19 22:36:08.686
18.584045,-380,466,-1524,251,1268,2158,14873.258,-5131.492,-3157.339,-3304.638,,,,,,2018-06-19 22:36:08.706
18.604034,-375,446,-1845,216,1226,2013,15012.526,-4997.662,-3038.883,-2974.566,21,-406,-507,,,2018-06-19 22:36:08.726
18.624023,-364,177,-1702,393,1080,1933,15138.24,-4872.893,-2906.365,-2660.279,,,,,,2018-06-19 22:36:08.746
18.644012,-425,181,-1609,335,985,1890,15251.133,-4754.971,-2774.188,-2352.127,,,,,,2018-06-19 22:36:08.766
18.664367,-380,116,-1543,413,952,1807,15352.221,-4637.209,-2645.252,-2060.019,,,,,,2018-06-19 22:36:08.786
18.68396,-406,186,-1592,398,904,1707,15440.396,-4523.673,-2528.385,-1781.364,21,-406,-507,98756,23880,2018-06-19 22:36:08.806
18.703949,-265,262,-1455,289,874,1617,15519.053,-4407.848,-2417.352,-1523.715,0,-399,-523,,,2018-06-19 22:36:08.826
18.723938,-185,201,-1124,310,854,1482,15587.919,-4297.571,-2310.539,-1282.378,,,,,,2018-06-19 22:36:08.846
18.743927,-32,474,-983,280,802,1389,15653.956,-4191.345,-2161.798,-1071.617,,,,,,2018-06-19 22:36:08.866
18.764282,-61,214,-1124,694,759,1293,15717.354,-4076.951,-2008.594,-862.69,,,,,,2018-06-19 22:36:08.886
18.783874,-208,67,-1001,565,799,1322,15773.438,-3958.087,-1886.386,-639.68,,,,,,2018-06-19 22:36:08.906
18.803894,-147,84,-755,246,835,1374,15819.996,-3847.05,-1786.186,-415.814,-14,-381,-492,,,2018-06-19 22:36:08.926
18.823852,-40,1,-517,307,759,1316,15860.258,-3737.979,-1696.932,-188.596,,,,,,2018-06-19 22:36:08.946
18.843841,-122,11,-592,172,787,1321,15896.275,-3624.25,-1614.676,38.913,,,,,,2018-06-19 22:36:08.966
18.864197,-238,137,-414,179,811,1295,15924.817,-3514.081,-1553.884,268.934,,,,,,2018-06-19 22:36:08.986
18.88388,-120,-60,-343,-31,667,1286,15943.145,-3420.315,-1519.879,492.926,,,,,,2018-06-19 22:36:09.006
18.903778,-73,180,-324,-61,695,1235,15958.893,-3323.344,-1483.333,710.116,-45,-378,-492,,,2018-06-19 22:36:09.026
18.923767,19,128,-747,-78,629,1189,15970.499,-3231.727,-1447.229,916.548,,,,,,2018-06-19 22:36:09.046
18.943756,-45,42,-17,-15,559,1161,15980.531,-3137.029,-1402.401,1118.213,,,,,,2018-06-19 22:36:09.066
18.964111,-279,52,-169,-64,634,1128,15989.41,-3033.623,-1355.322,1316.982,,,,,,2018-06-19 22:36:09.086
18.983734,264,594,-1052,68,686,1116,15992.379,-2947.42,-1307.079,1511.129,,,,,,2018-06-19 22:36:09.106
19.003723,-118,544,-879,34,634,1102,16001.783,-2815.96,-1242.026,1704.735,-79,-356,-474,,,2018-06-19 22:36:09.126
19.023681,156,514,-544,143,877,1106,16011.383,-2673.659,-1158.576,1892.171,,,,,,2018-06-19 22:36:09.146
19.04367,335,549,-810,181,916,1041,16018.327,-2524.062,-1057.346,2088.007,,,,,,2018-06-19 22:36:09.166
19.064026,227,771,-712,420,1205,1129,16027.138,-2361.948,-881.48,2282.646,,,,,,2018-06-19 22:36:09.186
19.083618,-1573,231,-783,835,1106,1208,16035.386,-2185.212,-656.005,2469.075,,,,,,2018-06-19 22:36:09.206
19.103607,-1169,321,-1235,929,1173,1218,16018.94,-2081.717,-499.529,2691.823,-101,-337,-456,,,2018-06-19 22:36:09.226
19.123596,-972,535,-1481,397,558,1377,15988.726,-2033.021,-450.575,2908.588,,,,,,2018-06-19 22:36:09.246
19.143585,-987,108,-1845,2,143,1188,15951.968,-2040.805,-450.819,3098.715,,,,,,2018-06-19 22:36:09.266
19.16394,-670,-124,-2093,-178,-269,1074,15904.495,-2122.39,-465.375,3280.45,,,,,,2018-06-19 22:36:09.286
19.183563,-1259,-139,-2212,-123,-681,1034,15854.497,-2238.676,-468.52,3440.81,-101,-337,-456,98757,23870,2018-06-19 22:36:09.306
19.203522,-1042,-136,-2356,-16,-812,918,15798.287,-2404.013,-523.693,3577.155,-115,-313,-470,,,2018-06-19 22:36:09.326
19.223511,-881,-20,-2289,-427,-1262,722,15745.478,-2594.82,-637.333,3657.329,,,,,,2018-06-19 22:36:09.346
19.2435,-825,-97,-2636,-429,-1316,295,15701.651,-2804.897,-731.781,3672.962,,,,,,2018-06-19 22:36:09.365
19.263855,-580,-81,-2507,-252,-1399,19,15660.332,-3021.479,-809.211,3661.323,,,,,,2018-06-19 22:36:09.386
19.283447,605,296,-2544,-95,-1386,-36,15623.556,-3219.119,-838.588,3643.345,,,,,,2018-06-19 22:36:09.405
19.303436,252,754,-2293,250,-1007,40,15601.31,-3314.305,-793.192,3663.438,-57,-307,-469,,,2018-06-19 22:36:09.425
19.323425,-38,1303,-2303,374,-268,363,15588.931,-3352.155,-719.157,3696.827,,,,,,2018-06-19 22:36:09.445
19.343414,482,2204,-2240,449,-181,178,15565.889,-3429.517,-748.955,3716.988,,,,,,2018-06-19 22:36:09.465
19.363769,709,1726,-2356,-441,-648,139,15547.334,-3471.184,-817.444,3741.457,,,,,,2018-06-19 22:36:09.486
19.383392,977,2179,-2732,-440,-107,271,15520.088,-3435.717,-890.109,3868.573,,,,,,2018-06-19 22:36:09.505
19.403442,1135,2296,-2585,-496,48,986,15465.465,-3393.859,-928.101,4107.94,20,-292,-455,,,2018-06-19 22:36:09.525
19.42337,843,2564,-2614,-503,366,1490,15410.981,-3273.637,-922.403,4401.087,,,,,,2018-06-19 22:36:09.545
19.443359,-276,2137,-3187,-474,792,1716,15362.797,-3099.918,-913.192,4687.907,,,,,,2018-06-19 22:36:09.565
19.463684,10,1618,-3005,-502,959,1545,15317.509,-2892.429,-883.843,4966.089,,,,,,2018-06-19 22:36:09.586
19.483307,363,1618,-2871,-440,1132,1572,15255.989,-2695.931,-850.553,5262.959,,,,,,2018-06-19 22:36:09.605
19.503296,163,1637,-3270,-362,1087,1773,15183.701,-2514.073,-748.239,5568.684,-32,-303,-502,,,2018-06-19 22:36:09.625
19.523285,-881,1406,-3318,139,1197,1819,15115.985,-2315.693,-628.87,5846.752,,,,,,2018-06-19 22:36:09.645
19.543243,-1017,1444,-3142,39,1231,1563,15051.141,-2179.541,-530.566,6071.795,,,,,,2018-06-19 22:36:09.665
19.563629,-938,1388,-2819,103,677,1324,14985.538,-2068.985,-496.611,6272.3,,,,,,2018-06-19 22:36:09.686
19.583221,-548,1580,-3373,-188,530,1172,14917.275,-1997.643,-470.799,6457.408,,,,,,2018-06-19 22:36:09.705
19.60321,-371,1435,-3126,81,410,1073,14853.788,-1933.872,-381.722,6626.827,-70,-219,-495,,,2018-06-19 22:36:09.725
19.623169,-443,1458,-3352,348,496,1144,14781.586,-1875.13,-272.497,6808.068,,,,,,2018-06-19 22:36:09.745
19.643158,-464,1348,-3233,381,505,1164,14716.181,-1823.801,-180.153,6964.965,,,,,,2018-06-19 22:36:09.765
19.663513,-481,1418,-2991,331,338,930,14664.431,-1797.274,-126.428,7081.222,,,,,,2018-06-19 22:36:09.786
19.683136,-208,1434,-2879,205,110,716,14615.096,-1787.452,-99.765,7185.364,-70,-219,-495,98763,23870,2018-06-19 22:36:09.805
19.703125,-7,1507,-2889,146,25,680,14559.398,-1776.639,-71.135,7300.538,-18,-213,-492,,,2018-06-19 22:36:09.825
19.723114,208,1451,-2748,165,141,816,14495.35,-1750.6,-25.84,7433.37,,,,,,2018-06-19 22:36:09.845
19.743103,127,1422,-2634,157,207,940,14422.406,-1712.122,18.207,7582.74,,,,,,2018-06-19 22:36:09.865
19.763458,-59,1325,-2569,93,235,996,14349.747,-1669.794,67.188,7728.355,,,,,,2018-06-19 22:36:09.885
19.78305,107,1274,-2195,108,311,935,14279.56,-1627.705,112.305,7865.593,,,,,,2018-06-19 22:36:09.905
19.803039,60,1189,-2202,91,308,911,14208.466,-1579.514,159.939,8002.154,19,-234,-497,,,2018-06-19 22:36:09.925
19.823028,-70,1117,-1997,126,315,929,14135.56,-1520.693,221.896,8140.001,,,,,,2018-06-19 22:36:09.945
19.843017,-31,1377,-2199,161,427,943,14059.322,-1459.335,290.599,8279.902,,,,,,2018-06-19 22:36:09.965
19.863373,-3,1187,-1973,194,440,964,13979.283,-1395.973,373.597,8421.803,,,,,,2018-06-19 22:36:09.985
19.882995,-173,1059,-1975,156,455,1043,13890.582,-1330.463,445.718,8574.285,,,,,,2018-06-19 22:36:10.005
19.902923,-21,1025,-1758,123,430,1069,13801.175,-1278.1,507.01,8721.949,34,-242,-489,,,2018-06-19 22:36:10.025
19.922882,-198,866,-1668,203,341,986,13718.446,-1237.225,580.214,8852.813,,,,,,2018-06-19 22:36:10.045
19.942871,-249,848,-1652,253,301,891,13639.222,-1213.073,645.616,8973.22,,,,,,2018-06-19 22:36:10.065
19.963257,-188,778,-1636,207,227,843,13562.672,-1196.66,700.453,9086.624,,,,,,2018-06-19 22:36:10.085
19.982849,-284,685,-1620,236,167,798,13489.58,-1193.055,761.741,9190.378,,,,,,2018-06-19 22:36:10.105
20.002838,-303,675,-1465,336,134,732,13421.979,-1198.168,828.004,9282.496,50,-246,-490,,,2018-06-19 22:36:10.125
20.022796,-234,624,-1429,375,179,643,13357.366,-1209.908,898.977,9367.186,,,,,,2018-06-19 22:36:10.145
20.042785,-189,619,-1404,446,101,628,13293.431,-1232.228,969.621,9447.834,,,,,,2018-06-19 22:36:10.165
20.063141,-229,490,-1336,445,73,591,13233.576,-1254.015,1046.244,9520.542,,,,,,2018-06-19 22:36:10.185
20.082763,-106,446,-1376,484,134,540,13176.799,-1264.811,1114.624,9589.852,,,,,,2018-06-19 22:36:10.205
20.102752,-95,398,-1348,333,154,540,13118.792,-1263.298,1171.315,9662.547,76,-248,-477,,,2018-06-19 22:36:10.225
20.122711,-69,251,-1441,236,135,570,13059.634,-1259.882,1216.822,9737.218,,,,,,2018-06-19 22:36:10.245
20.1427,-11,288,-1311,189,119,558,13004.332,-1248.366,1259.284,9807.067,,,,,,2018-06-19 22:36:10.265
20.163086,29,250,-1290,201,159,507,12950.857,-1233.202,1306.029,9873.41,,,,,,2018-06-19 22:36:10.285
20.182678,-1,297,-1262,152,203,509,12898.27,-1203.443,1346.681,9940.233,76,-248,-477,98756,23870,2018-06-19 22:36:10.305
20.202667,25,201,-1285,73,209,535,12843.041,-1161.49,1379.66,10011.953,106,-264,-473,,,2018-06-19 22:36:10.325
20.222656,90,107,-1288,-27,264,558,12785.4,-1101.399,1395.989,10089.951,,,,,,2018-06-19 22:36:10.345
20.242645,71,68,-1287,-169,266,597,12727.517,-1023.397,1401.362,10170.28,,,,,,2018-06-19 22:36:10.365
20.263,33,97,-1257,-282,331,613,12667.54,-933.777,1401.238,10253.461,,,,,,2018-06-19 22:36:10.385
20.282623,-67,242,-1162,-319,357,629,12604.785,-838.037,1404.604,10338.259,,,,,,2018-06-19 22:36:10.405
20.302582,-124,336,-1208,-291,390,667,12536.703,-758.205,1426.765,10423.818,123,-254,-471,,,2018-06-19 22:36:10.425
20.322571,-194,328,-1220,-122,355,672,12467.715,-680.599,1443.745,10509.229,,,,,,2018-06-19 22:36:10.445
20.342529,-171,431,-1163,-252,314,678,12399.19,-601.629,1439.81,10595.305,,,,,,2018-06-19 22:36:10.465
20.362915,-86,189,-1183,-265,226,653,12331.365,-521.286,1417.478,10681.38,,,,,,2018-06-19 22:36:10.485
20.382507,7,259,-1171,-439,193,677,12263.837,-428.946,1380.998,10767.664,,,,,,2018-06-19 22:36:10.505
20.402496,109,202,-1288,-482,215,650,12200.258,-321.46,1342.167,10848.243,129,-255,-458,,,2018-06-19 22:36:10.524
20.422485,73,231,-1380,-577,320,618,12139.481,-190.091,1303.645,10923.955,,,,,,2018-06-19 22:36:10.544
20.442474,-41,392,-1535,-646,411,608,12079.538,-46.919,1274.953,10995.112,,,,,,2018-06-19 22:36:10.564
20.462829,-91,599,-1779,-591,515,588,12022.522,93.041,1275.634,11057.057,,,,,,2018-06-19 22:36:10.585
20.482422,-403,808,-1760,-442,594,508,11972.387,234.563,1286.353,11108,,,,,,2018-06-19 22:36:10.604
20.502411,-318,638,-1821,-403,602,464,11918.295,322.547,1287.201,11163.725,135,-245,-462,,,2018-06-19 22:36:10.624
20.5224,-133,423,-1797,-227,191,487,11859.908,388.213,1235.842,11229.426,,,,,,2018-06-19 22:36:10.644
20.542389,255,465,-1684,-494,-21,567,11793.616,442.175,1151.954,11305.907,,,,,,2018-06-19 22:36:10.664
20.562744,426,329,-1718,-473,-162,639,11723.211,506.478,1079.551,11383.313,,,,,,2018-06-19 22:36:10.685
20.582367,95,447,-1768,-534,153,629,11654.744,635.23,1036.583,11450.954,,,,,,2018-06-19 22:36:10.704
20.602325,45,488,-1698,-677,438,593,11591.545,780.295,1008.818,11508.473,153,-224,-454,,,2018-06-19 22:36:10.724
20.622375,-139,876,-1889,-608,502,523,11528.58,916.056,997.381,11562.584,,,,,,2018-06-19 22:36:10.744
20.642303,-202,1021,-1986,-463,522,508,11464.307,1027.801,1005.287,11616.287,,,,,,2018-06-19 22:36:10.764
20.662658,-377,1380,-2058,-278,476,520,11396.612,1113.764,1018.538,11673.679,,,,,,2018-06-19 22:36:10.785
20.682281,-465,1560,-2001,-169,390,518,11332.745,1177.017,1031.263,11728.404,153,-224,-454,98761,23870,2018-06-19 22:36:10.804
20.70224,-305,1371,-2104,-47,327,447,11274.368,1235.073,1025.461,11779.095,153,-229,-449,,,2018-06-19 22:36:10.824
20.722229,-234,1330,-1980,-211,158,446,11216.537,1299.966,996.197,11829.725,,,,,,2018-06-19 22:36:10.844
20.742248,-307,1727,-2051,-310,116,476,11149.375,1366.85,940.498,11890.083,,,,,,2018-06-19 22:36:10.864
20.762573,-11,1827,-2617,-415,15,584,11086.587,1417.055,880.891,11947.343,,,,,,2018-06-19 22:36:10.885
20.782196,229,1657,-2352,-202,-123,482,11024.131,1428.153,876.557,12003.999,,,,,,2018-06-19 22:36:10.904
20.802185,5,2043,-2495,40,113,450,10963.141,1441.125,863.015,12059.16,138,-227,-451,,,2018-06-19 22:36:10.924
20.822143,-382,1835,-1819,47,-77,502,10892.014,1424.123,867.475,12125.132,,,,,,2018-06-19 22:36:10.944
20.842132,-278,1787,-2129,190,203,552,10816.089,1414.19,881.33,12193.071,,,,,,2018-06-19 22:36:10.964
20.862518,-281,1850,-2111,310,46,582,10734.517,1391.221,906.856,12265.712,,,,,,2018-06-19 22:36:10.985
20.88211,-159,1727,-2211,356,35,598,10645.987,1369.53,933.004,12343.107,,,,,,2018-06-19 22:36:11.004
20.902099,-100,1687,-2102,291,46,666,10548.025,1357.41,955.309,12426.561,95,-188,-454,,,2018-06-19 22:36:11.024
20.922088,-257,1863,-2398,265,123,718,10445.784,1363.836,994.598,12508.867,,,,,,2018-06-19 22:36:11.044
20.942047,-369,1753,-2211,276,246,702,10346.814,1370.601,1053.84,12585.299,,,,,,2018-06-19 22:36:11.064
20.962433,-446,1595,-2335,311,331,656,10250.922,1331.286,1105.027,12663.357,,,,,,2018-06-19 22:36:11.084
20.982025,-62,1574,-2647,632,-33,654,10158.767,1232.77,1130.388,12745.092,,,,,,2018-06-19 22:36:11.104
21.002014,118,1434,-2204,653,-298,625,10073.548,1143.943,1134.176,12820.456,60,-168,-439,,,2018-06-19 22:36:11.124
21.022003,-224,1445,-2443,467,-303,597,9986.544,1055.063,1123.392,12896.868,,,,,,2018-06-19 22:36:11.144
21.041961,-386,1357,-2359,478,-480,645,9904.396,962.339,1101.007,12969.196,,,,,,2018-06-19 22:36:11.164
21.062347,101,1428,-2435,446,-280,528,9830.473,882.94,1107.991,13030.349,,,,,,2018-06-19 22:36:11.184
21.081939,94,1308,-2397,554,-214,475,9763.298,791.826,1128.633,13084.825,,,,,,2018-06-19 22:36:11.204
21.101928,29,1304,-2567,587,-194,421,9698.428,707.852,1134.116,13137.3,98,-179,-460,,,2018-06-19 22:36:11.224
21.121887,51,1206,-2490,447,-219,432,9637.721,641.712,1125.881,13185.991,,,,,,2018-06-19 22:36:11.244
21.141876,101,1132,-2411,336,-255,409,9580.675,579.434,1113.152,13231.449,,,,,,2018-06-19 22:36:11.264
21.162231,274,941,-2363,340,-262,378,9527.406,526.868,1100.747,13273.083,,,,,,2018-06-19 22:36:11.284
21.181824,233,1060,-2451,246,-194,362,9473.137,489.299,1096.639,13313.643,98,-179,-460,98759,23860,2018-06-19 22:36:11.304
21.201813,288,1018,-2327,235,-123,384,9417.464,455.808,1100.649,13353.937,144,-233,-492,,,2018-06-19 22:36:11.324
21.221832,95,1030,-2381,264,-26,358,9367.673,427.491,1123.235,13387.97,,,,,,2018-06-19 22:36:11.344
21.241791,10,958,-2286,280,42,302,9327.738,405.249,1152.48,13414.033,,,,,,2018-06-19 22:36:11.364
21.262176,-41,831,-2347,243,97,225,9296.506,399.391,1166.491,13434.664,,,,,,2018-06-19 22:36:11.384
21.281769,-9,806,-2383,62,13,201,9269.969,397.921,1154.602,13454.057,,,,,,2018-06-19 22:36:11.404
21.301758,19,768,-2353,3,-60,170,9248.571,390.671,1138.695,13470.342,174,-248,-507,,,2018-06-19 22:36:11.424
21.321716,-38,866,-2268,27,-81,134,9233.476,384.964,1123.872,13482.102,,,,,,2018-06-19 22:36:11.444
21.341705,-3,725,-2184,59,-89,81,9225.817,369.493,1107.95,13489.094,,,,,,2018-06-19 22:36:11.464
21.36206,95,541,-2168,52,-120,26,9226.441,359.728,1076.497,13491.478,,,,,,2018-06-19 22:36:11.484
21.381683,-13,437,-2235,-34,-209,-18,9229.57,357.047,1024.359,13493.468,,,,,,2018-06-19 22:36:11.504
21.401672,94,526,-2166,-215,-262,-2,9237.984,377.381,946.544,13492.84,210,-260,-509,,,2018-06-19 22:36:11.524
21.421631,193,826,-1817,-328,-295,-32,9246.445,391.711,884.083,13490.872,,,,,,2018-06-19 22:36:11.544
21.44162,-51,831,-1671,-141,-203,-39,9256.976,380.236,859.515,13485.566,,,,,,2018-06-19 22:36:11.564
21.462005,-60,823,-1628,32,-156,-74,9263.976,359.242,835.016,13482.873,,,,,,2018-06-19 22:36:11.584
21.481598,-55,880,-1409,47,-160,-43,9278.804,350.651,794.627,13475.342,,,,,,2018-06-19 22:36:11.604
21.501587,-44,628,-1483,-37,-221,-128,9303.431,347.651,750.161,13460.981,227,-282,-495,,,2018-06-19 22:36:11.624
21.521545,-1,649,-1348,-162,-181,-178,9328.866,365.125,696.441,13445.793,,,,,,2018-06-19 22:36:11.644
21.541534,108,618,-1236,-293,-171,-149,9346.526,380.458,643.42,13435.741,,,,,,2018-06-19 22:36:11.664
21.56192,84,598,-1177,-180,-141,-88,9355.753,400.516,606.931,13430.433,,,,,,2018-06-19 22:36:11.684
21.581512,126,658,-1069,-198,-64,-40,9359.03,416.946,578.796,13428.892,,,,,,2018-06-19 22:36:11.704
21.601471,-32,459,-1172,-71,-67,-13,9362.294,430.187,564.067,13426.826,218,-264,-492,,,2018-06-19 22:36:11.723
21.62146,-12,532,-1044,-116,-5,-15,9360.116,454.695,538.774,13428.576,,,,,,2018-06-19 22:36:11.743
21.641449,39,524,-1005,-177,-62,38,9355.772,472.597,509.275,13432.135,,,,,,2018-06-19 22:36:11.763
21.661835,-24,539,-1026,-176,-62,33,9351.692,500.585,480.404,13435.026,,,,,,2018-06-19 22:36:11.784
21.681427,19,661,-946,-232,-34,40,9351.332,532.728,449.03,13435.125,218,-264,-492,98754,23860,2018-06-19 22:36:11.803
21.701416,-8,683,-1012,-236,-54,0,9353.674,559.947,422.236,13433.257,199,-268,-489,,,2018-06-19 22:36:11.823
21.721405,-94,695,-1052,-159,-9,-20,9357.848,583.793,407.585,13429.787,,,,,,2018-06-19 22:36:11.843
21.741363,-93,647,-1147,-143,8,-29,9364.244,608.219,382.684,13424.976,,,,,,2018-06-19 22:36:11.863
21.761719,-59,733,-1121,-219,-59,-47,9371.49,636.685,338.658,13419.782,,,,,,2018-06-19 22:36:11.884
21.781341,-27,668,-1154,-231,-141,-41,9378.392,653.884,291.402,13415.242,,,,,,2018-06-19 22:36:11.903
21.80133,47,588,-1159,-208,-160,-29,9383.88,667.897,245.75,13411.627,200,-267,-490,,,2018-06-19 22:36:11.923
21.821319,-43,647,-1225,-188,-175,-23,9390.223,676.647,206.167,13407.415,,,,,,2018-06-19 22:36:11.943
21.841339,-21,692,-1285,-139,-154,-42,9399.801,682.983,166.937,13400.927,,,,,,2018-06-19 22:36:11.963
21.861633,-5,847,-1279,-128,-176,-68,9413.789,683.603,132.172,13391.461,,,,,,2018-06-19 22:36:11.984
21.881317,-26,892,-1378,-75,-160,-101,9429.929,670.726,109.312,13380.959,,,,,,2018-06-19 22:36:12.003
21.901245,-91,1023,-1304,52,-149,-115,9442.715,659.23,88.438,13372.665,207,-262,-477,,,2018-06-19 22:36:12.023
21.921234,98,836,-1427,-10,-137,-76,9453.292,648.296,63.486,13365.866,,,,,,2018-06-19 22:36:12.043
21.941223,59,980,-1434,21,-146,-48,9459.565,643.91,33.242,13361.749,,,,,,2018-06-19 22:36:12.063
21.961578,-6,1045,-1591,-72,-149,-40,9466.535,645.662,7.155,13356.766,,,,,,2018-06-19 22:36:12.084
21.98117,103,1057,-1608,-34,-100,-53,9475.566,636.632,-6.495,13350.795,,,,,,2018-06-19 22:36:12.103
22.001159,20,1149,-1701,65,-82,-67,9486.09,620.762,-10.492,13344.065,210,-253,-474,,,2018-06-19 22:36:12.123
22.021148,101,1206,-1763,118,-57,-70,9494.269,604.022,-15.746,13339.01,,,,,,2018-06-19 22:36:12.143
22.041137,78,1197,-1852,94,-80,-49,9498.983,589.231,-24.054,13336.303,,,,,,2018-06-19 22:36:12.163
22.061493,99,1128,-2037,69,-86,-25,9500.168,582.107,-30.346,13335.759,,,,,,2018-06-19 22:36:12.183
22.081085,48,1182,-2143,52,-9,-6,9501.202,583.765,-34.314,13334.94,,,,,,2018-06-19 22:36:12.203
22.101074,60,1250,-2360,-14,-14,-19,9507.067,587.997,-54.708,13330.506,193,-248,-490,,,2018-06-19 22:36:12.223
22.121063,-26,1225,-2378,-55,-117,-62,9520.964,597.564,-81.522,13320.02,,,,,,2018-06-19 22:36:12.243
22.141052,-13,1180,-2568,-89,-112,-102,9535.402,617.934,-126.31,13308.409,,,,,,2018-06-19 22:36:12.263
22.161407,35,1286,-2760,-270,-113,-99,9550.969,649.43,-190.058,13294.982,,,,,,2018-06-19 22:36:12.283
22.181,98,1234,-3044,-291,-248,-134,9573.535,651.748,-234.735,13277.913,193,-248,-490,98759,23860,2018-06-19 22:36:12.303
22.200989,-67,1372,-2897,-98,-146,-176,9597.98,675.819,-268.215,13258.414,169,-231,-500,,,2018-06-19 22:36:12.323
22.220978,-91,1374,-3006,-186,-74,-172,9623.255,697.645,-307.934,13238.084,,,,,,2018-06-19 22:36:12.343
22.240967,-58,1326,-2968,-192,-180,-190,9654.7,715.9,-373.989,13212.487,,,,,,2018-06-19 22:36:12.363
22.261322,122,1324,-3090,-272,-312,-239,9692.712,719.264,-444.158,13182.266,,,,,,2018-06-19 22:36:12.383
22.280914,35,1402,-2812,-173,-295,-273,9731.991,729.164,-492.834,13151.016,,,,,,2018-06-19 22:36:12.403
22.300903,-77,1691,-2760,-112,-179,-263,9771.736,714.271,-519.16,13121.314,223,-249,-485,,,2018-06-19 22:36:12.423
22.320892,-16,1666,-2716,113,-242,-290,9815.308,682.124,-546.229,13089.366,,,,,,2018-06-19 22:36:12.443
22.340881,-53,1644,-2736,67,-258,-299,9855.737,673.829,-590.475,13057.457,,,,,,2018-06-19 22:36:12.463
22.361236,134,1548,-2369,-152,-198,-283,9898.926,669.974,-639.267,13022.64,,,,,,2018-06-19 22:36:12.483
