;Title, http://www.gcdataconcepts.com, HAM-IMU, MPU-9250
;Version, 1191, Build date, Nov 15 2016,  SN:CCDC30161C28AA2
;Start_time, 2018-06-19, 15:59:54.643
;Temperature, -999.00, deg C,  Vbat, 4206, mv
;MPU SR, 200,Hz,  Accel sens, 2048,counts/g, Gyro sens, 16,counts/dps,  Mag SR, 10,Hz,  Mag sens, 1666,counts/mT
;Deadband, 0, counts
;DeadbandTimeout, 5,sec
;Time, Ax, Ay, Az, Gx, Gy, Gz, Qw, Qx, Qy, Qz, Mx, My, Mz, T
0.001617,-22,188,-2096,1,1,0,14325.730,-295.790,-753.202,-7909.115
0.008789,-43,198,-2080,-2,-1,0,14325.860,-296.071,-753.106,-7908.877
0.028778,-37,207,-2079,-2,-3,1,14325.912,-296.166,-753.103,-7908.781
0.048767,-35,206,-2096,-3,-2,2,14325.879,-296.164,-753.209,-7908.829,553,-250,-258,35236
0.068756,-26,207,-2100,-1,-1,0,14325.854,-296.046,-753.203,-7908.879
0.088745,-23,209,-2086,-1,0,-1,14325.880,-296.272,-753.183,-7908.826
0.108734,-24,202,-2103,-1,-3,0,14325.836,-296.055,-753.251,-7908.907
0.128723,-27,203,-2070,0,1,-1,14325.854,-296.019,-753.123,-7908.889
0.148681,1,208,-2065,1,-2,0,14325.911,-296.006,-753.048,-7908.793,546,-255,-253
0.168701,-26,193,-2084,0,0,-1,14325.861,-295.982,-753.131,-7908.876
0.188690,-18,212,-2085,0,0,0,14325.914,-295.907,-753.282,-7908.769
0.208679,-22,196,-2091,-1,-1,1,14325.908,-295.948,-753.228,-7908.784
0.228637,-30,194,-2087,-1,-1,0,14325.903,-296.038,-753.027,-7908.809
0.248626,-16,200,-2067,1,-1,-1,14325.985,-295.975,-752.957,-7908.669,559,-256,-261
0.268615,-20,214,-2091,-1,-1,2,14325.958,-296.078,-752.777,-7908.731
0.288604,-37,194,-2099,0,0,-1,14325.994,-296.035,-752.773,-7908.667
0.308624,-11,199,-2093,0,-1,1,14325.951,-295.958,-752.608,-7908.765
0.328582,-20,198,-2058,-1,-1,-1,14325.964,-295.973,-752.647,-7908.736
0.348571,-33,199,-2066,-1,0,0,14325.895,-295.901,-752.683,-7908.861,569,-247,-266
0.368560,-43,198,-2138,-1,-1,0,14325.837,-296.116,-752.724,-7908.953
0.388549,-23,205,-2082,-3,-2,-1,14325.917,-296.097,-752.653,-7908.816
0.408538,-27,199,-2092,-1,-1,0,14326.011,-296.105,-752.797,-7908.632
0.428527,-24,204,-2087,0,1,2,14326.046,-295.936,-752.915,-7908.563
0.448516,-32,213,-2079,-1,0,0,14326.076,-296.079,-752.896,-7908.506,564,-239,-256
0.468505,-34,171,-2071,-2,-1,-2,14326.048,-296.077,-752.839,-7908.562
0.488494,-35,193,-2112,1,-2,-2,14326.081,-295.869,-753.000,-7908.495
0.508483,-25,195,-2093,-1,-1,1,14326.127,-295.982,-753.108,-7908.397
0.528472,-17,209,-2102,0,0,-1,14326.142,-295.858,-753.188,-7908.368
0.548461,-23,222,-2080,1,1,1,14326.219,-295.936,-753.085,-7908.234,564,-239,-256,35226
0.568450,-29,205,-2122,0,0,0,14326.204,-295.988,-753.276,-7908.242
0.588439,-24,193,-2074,1,0,0,14326.236,-295.930,-753.376,-7908.176
0.608428,-18,204,-2066,-1,-1,0,14326.308,-295.980,-753.410,-7908.039
0.628417,-9,197,-2082,-2,-2,0,14326.325,-295.927,-753.379,-7908.014
0.648407,-24,215,-2095,-1,-1,-2,14326.297,-295.963,-753.376,-7908.065,567,-243,-255
0.668396,-41,214,-2100,-3,-1,0,14326.342,-296.170,-753.454,-7907.967
0.688385,-34,213,-2075,-1,-1,0,14326.267,-296.157,-753.508,-7908.098
0.708404,-30,209,-2130,-1,-1,-1,14326.262,-295.934,-753.561,-7908.111
0.728363,-27,196,-2098,1,0,0,14326.280,-295.991,-753.353,-7908.096
0.748352,-19,204,-2111,-1,-2,-2,14326.272,-295.962,-753.352,-7908.111,567,-240,-255
0.768341,-22,211,-2074,1,0,-2,14326.186,-295.825,-753.277,-7908.279
0.788330,-36,214,-2084,0,0,0,14326.266,-295.814,-753.182,-7908.145
0.808319,-24,192,-2103,0,0,2,14326.230,-295.998,-753.129,-7908.208
0.828308,-25,202,-2088,-2,-1,-1,14326.317,-296.232,-753.186,-7908.036
0.848297,-32,212,-2092,-2,-1,0,14326.311,-296.219,-753.191,-7908.047,555,-245,-251
0.868286,-9,217,-2093,0,0,-1,14326.339,-296.366,-753.196,-7907.990
0.888275,-22,203,-2097,-1,-3,-1,14326.370,-296.471,-753.198,-7907.930
0.908264,-29,207,-2076,-3,-1,1,14326.418,-296.608,-753.171,-7907.840
0.928253,-8,209,-2097,0,-1,1,14326.517,-296.560,-753.145,-7907.665
0.948242,-30,226,-2096,1,-1,0,14326.541,-296.534,-752.944,-7907.642,560,-238,-265
0.968231,-29,189,-2079,0,0,-1,14326.595,-296.483,-752.949,-7907.545
0.988281,-31,212,-2088,-2,-3,0,14326.623,-296.544,-753.110,-7907.477
1.008209,-32,204,-2053,-2,-1,-1,14326.608,-296.672,-753.179,-7907.494
1.028198,-23,205,-2062,-2,-1,-1,14326.636,-296.697,-753.287,-7907.431
1.048187,-26,205,-2104,0,0,1,14326.627,-296.757,-753.244,-7907.449,566,-244,-259,35222
1.068176,-17,199,-2063,0,0,-3,14326.648,-296.577,-753.251,-7907.418
1.088165,-33,199,-2091,-2,-1,-1,14326.617,-296.393,-752.922,-7907.512
1.108154,-36,217,-2072,1,0,-1,14326.717,-296.326,-752.898,-7907.335
1.128143,-31,219,-2071,1,0,1,14326.705,-296.266,-753.098,-7907.340
1.148132,-27,214,-2075,-1,-2,0,14326.756,-296.302,-753.219,-7907.235,557,-249,-261
1.168121,-25,198,-2103,-2,-1,0,14326.662,-296.318,-753.218,-7907.404
1.188110,-30,206,-2055,-2,-1,-1,14326.556,-296.081,-753.269,-7907.601
1.208099,-35,220,-2046,0,1,-1,14326.507,-296.085,-753.248,-7907.691
1.228088,-34,212,-2120,0,0,0,14326.500,-296.085,-753.124,-7907.715
1.248077,-28,200,-2071,2,0,0,14326.510,-295.986,-753.306,-7907.685,564,-242,-252
1.268066,-20,206,-2070,-2,-1,-1,14326.428,-296.189,-753.319,-7907.823
1.288055,-23,204,-2081,-2,-3,-2,14326.422,-296.249,-753.294,-7907.835
1.308044,-29,209,-2116,-1,-1,-2,14326.478,-296.384,-753.086,-7907.747
1.328033,-1,202,-2105,-1,-2,-1,14326.538,-296.322,-753.075,-7907.642
1.347991,-25,217,-2096,-2,-1,1,14326.638,-296.310,-753.100,-7907.459,561,-234,-252
1.367980,-14,224,-2069,1,1,1,14326.669,-296.433,-753.088,-7907.399
1.387970,-25,215,-2091,-2,-2,-1,14326.718,-296.587,-753.141,-7907.300
1.407989,-17,227,-2059,0,0,2,14326.725,-296.688,-753.239,-7907.275
1.427948,-30,199,-2074,-2,-1,-1,14326.762,-296.551,-753.323,-7907.204
1.447967,-29,203,-2072,0,0,1,14326.803,-296.390,-753.357,-7907.134,552,-247,-259
1.467956,-43,212,-2076,2,0,0,14326.838,-296.367,-753.334,-7907.073
1.487945,-45,210,-2074,1,0,0,14326.889,-296.465,-753.345,-7906.976
1.507904,1,200,-2076,-2,-1,0,14326.967,-296.382,-753.301,-7906.842
1.527923,-22,202,-2072,-1,0,0,14327.033,-296.227,-753.243,-7906.733
1.547882,-32,187,-2086,1,0,0,14327.023,-296.311,-753.236,-7906.748,553,-240,-260,35245
1.567901,-34,203,-2099,-3,-1,0,14326.996,-296.317,-753.211,-7906.800
1.587890,-6,197,-2067,0,1,0,14326.928,-296.309,-753.123,-7906.933
1.607849,-21,222,-2079,0,-1,-1,14326.938,-296.274,-753.252,-7906.903
1.627868,-31,216,-2090,0,0,0,14326.928,-296.316,-753.300,-7906.916
1.647857,-8,205,-2086,-2,-1,-1,14326.969,-296.226,-753.210,-7906.853,558,-238,-269
1.667846,-17,198,-2109,-1,-1,1,14326.980,-296.296,-753.298,-7906.822
1.687835,-29,209,-2131,0,0,1,14327.053,-296.418,-753.277,-7906.687
1.707824,-22,217,-2098,0,0,0,14327.111,-296.332,-753.267,-7906.587
1.727813,-31,199,-2099,-2,-1,2,14326.975,-296.381,-753.258,-7906.830
1.747772,-13,207,-2098,0,0,-3,14326.934,-296.258,-753.136,-7906.922,555,-248,-258
1.767761,-4,191,-2092,0,1,-1,14326.880,-296.328,-753.248,-7907.006
1.787750,-13,193,-2121,-2,-1,-1,14326.935,-296.426,-753.211,-7906.906
1.807769,-20,207,-2118,1,0,2,14326.996,-296.447,-753.028,-7906.812
1.827728,-36,186,-2078,0,0,0,14327.117,-296.470,-752.951,-7906.601
1.847747,-23,190,-2085,0,-1,0,14327.073,-296.275,-752.896,-7906.692,560,-238,-260
1.867706,-30,210,-2073,0,0,0,14327.090,-296.113,-752.886,-7906.669
1.887695,-24,223,-2054,-1,-1,-1,14327.097,-296.260,-752.883,-7906.650
1.907684,-33,198,-2083,-1,-1,0,14327.109,-296.195,-753.075,-7906.614
1.927673,-28,217,-2076,-2,-1,1,14327.120,-296.209,-753.148,-7906.585
1.947662,-26,194,-2097,-1,-2,0,14327.180,-296.082,-753.216,-7906.475,557,-239,-263
1.967651,-25,200,-2081,0,0,1,14327.195,-296.012,-753.216,-7906.451
1.987670,-31,194,-2098,-2,-1,0,14327.093,-295.880,-753.120,-7906.650
2.007629,-33,220,-2110,1,1,-2,14327.100,-295.956,-753.111,-7906.634
2.027618,-15,194,-2098,0,-1,0,14327.185,-295.847,-752.956,-7906.500
2.047607,-18,206,-2076,1,0,1,14327.267,-295.734,-752.881,-7906.363,558,-236,-262,35230
2.067596,-28,210,-2092,0,0,0,14327.334,-295.870,-752.982,-7906.226
2.087585,-27,206,-2097,-1,0,1,14327.395,-295.685,-753.057,-7906.116
2.107574,-43,204,-2096,1,2,0,14327.388,-295.575,-753.095,-7906.128
2.127594,-35,194,-2065,0,-1,-1,14327.423,-295.532,-753.160,-7906.060
2.147552,-36,214,-2093,1,0,-1,14327.407,-295.589,-753.319,-7906.073,563,-243,-260
2.167541,-36,212,-2097,-1,-2,0,14327.420,-295.503,-753.358,-7906.049
2.187530,-25,210,-2070,-2,-2,0,14327.445,-295.601,-753.490,-7905.987
2.207580,-24,202,-2096,-1,-1,0,14327.485,-295.558,-753.344,-7905.929
2.227508,-23,197,-2106,0,0,1,14327.396,-295.609,-753.227,-7906.100
2.247497,-22,211,-2079,-1,-2,0,14327.389,-295.695,-753.147,-7906.118,558,-238,-258
2.267486,-24,188,-2133,1,0,0,14327.403,-295.555,-753.164,-7906.096
2.287475,-23,226,-2090,0,0,-1,14327.464,-295.500,-753.126,-7905.991
2.307464,-33,206,-2112,0,0,0,14327.495,-295.555,-753.146,-7905.930
2.327453,-22,209,-2069,0,0,1,14327.550,-295.564,-753.080,-7905.838
2.347442,-23,197,-2098,1,0,0,14327.506,-295.499,-753.004,-7905.927,569,-247,-249
2.367431,-29,199,-2100,0,0,-2,14327.555,-295.541,-753.106,-7905.825
2.387420,-7,205,-2110,-1,0,2,14327.494,-295.696,-753.249,-7905.917
2.407409,-16,208,-2102,-3,-2,-1,14327.468,-295.785,-753.135,-7905.973
2.427398,-29,205,-2110,-1,-1,0,14327.445,-295.599,-753.201,-7906.015
2.447387,-20,213,-2072,0,0,-1,14327.516,-295.745,-753.230,-7905.878,563,-240,-255
2.467376,-18,217,-2085,-2,-2,1,14327.546,-295.742,-753.409,-7905.805
2.487365,-20,217,-2091,-4,-1,-2,14327.498,-295.627,-753.455,-7905.893
2.507354,-30,212,-2082,-2,-1,0,14327.468,-295.665,-753.401,-7905.950
2.527343,-36,205,-2098,-2,-2,-1,14327.444,-295.482,-753.463,-7905.996
2.547332,-11,217,-2086,-1,-1,1,14327.338,-295.324,-753.399,-7906.200,554,-234,-259,35206
2.567321,-20,208,-2091,1,0,-3,14327.304,-295.443,-753.508,-7906.247
2.587310,-42,203,-2094,-2,-1,0,14327.362,-295.304,-753.559,-7906.142
2.607299,-14,207,-2102,-1,-1,2,14327.302,-295.378,-753.623,-7906.241
2.627288,-28,216,-2105,-2,-3,0,14327.379,-295.383,-753.617,-7906.103
2.647277,-22,187,-2105,0,0,0,14327.387,-295.536,-753.575,-7906.086,564,-244,-259
2.667266,-18,196,-2109,-2,-2,0,14327.420,-295.688,-753.538,-7906.025
2.687255,-19,192,-2091,-2,-1,3,14327.411,-295.672,-753.561,-7906.040
2.707244,-30,194,-2095,-1,-1,1,14327.397,-295.697,-753.639,-7906.057
2.727233,-7,209,-2098,-1,-1,0,14327.388,-295.701,-753.619,-7906.075
2.747222,-23,202,-2081,0,0,-1,14327.375,-295.644,-753.771,-7906.085,563,-236,-260
2.767211,-35,206,-2085,-1,0,1,14327.328,-295.660,-753.765,-7906.170
2.787170,-17,209,-2087,-2,-2,-1,14327.380,-295.718,-753.709,-7906.079
2.807189,-35,203,-2092,-2,-1,0,14327.419,-295.736,-753.581,-7906.020
2.827178,-23,209,-2090,0,0,1,14327.365,-295.834,-753.603,-7906.113
2.847167,-28,203,-2107,-1,-1,-3,14327.354,-295.909,-753.650,-7906.124,558,-248,-262
2.867126,-10,195,-2069,-1,0,-2,14327.246,-295.930,-753.554,-7906.328
2.887146,-16,213,-2087,-1,-1,-1,14327.260,-296.071,-753.475,-7906.305
2.907135,-32,198,-2073,0,0,0,14327.297,-296.074,-753.389,-7906.246
2.927124,-45,217,-2085,-1,-3,-1,14327.314,-295.974,-753.348,-7906.224
2.947113,-34,192,-2096,1,1,0,14327.303,-295.841,-753.559,-7906.229,550,-238,-260
2.967102,-20,210,-2099,-1,-1,-2,14327.251,-295.972,-753.522,-7906.321
2.987091,-11,217,-2072,-1,-1,0,14327.310,-295.984,-753.530,-7906.212
3.007080,-25,210,-2110,0,0,0,14327.287,-295.933,-753.542,-7906.256
3.027069,-31,199,-2066,0,0,-1,14327.190,-296.129,-753.538,-7906.425
3.047058,-17,225,-2104,-1,-2,-3,14327.220,-296.140,-753.617,-7906.362,555,-245,-255,35232
3.067047,-33,214,-2082,0,0,0,14327.165,-296.180,-753.749,-7906.447
3.087036,-29,212,-2063,-2,-1,1,14327.328,-296.207,-753.670,-7906.158
3.107025,-19,207,-2076,1,0,2,14327.387,-296.131,-753.721,-7906.051
3.127014,-31,181,-2109,-1,-1,-1,14327.372,-296.118,-753.969,-7906.055
3.146972,-19,194,-2075,-2,-2,2,14327.316,-296.263,-753.968,-7906.151,569,-247,-259
3.166992,-20,223,-2105,0,0,0,14327.418,-296.211,-753.916,-7905.973
3.186981,-29,210,-2088,0,0,0,14327.461,-296.161,-753.741,-7905.913
3.206970,-40,205,-2072,-2,-1,1,14327.350,-296.115,-753.703,-7906.119
3.226928,-27,202,-2091,1,0,-4,14327.344,-296.063,-753.670,-7906.135
3.246948,-17,206,-2091,1,-1,-2,14327.212,-296.059,-753.673,-7906.374,559,-234,-254
3.266937,-28,203,-2108,-1,-1,-2,14327.158,-296.148,-753.676,-7906.468
3.286926,-42,219,-2085,-1,-1,-1,14327.084,-296.162,-753.739,-7906.596
3.306884,-29,210,-2082,-1,-1,-1,14327.132,-296.301,-753.848,-7906.494
3.326904,-37,219,-2121,-2,-2,1,14327.208,-296.255,-753.882,-7906.354
3.346893,-31,206,-2103,-1,-1,1,14327.179,-296.279,-753.827,-7906.412,553,-238,-255
3.366851,-26,199,-2105,-1,-2,-1,14327.146,-296.309,-753.859,-7906.467
3.386840,-22,219,-2081,0,0,0,14327.187,-296.224,-753.750,-7906.405
3.406860,-20,202,-2086,-1,-1,0,14327.154,-296.236,-753.800,-7906.461
3.426879,-34,227,-2088,0,0,1,14327.255,-296.238,-753.725,-7906.284
3.446807,-9,202,-2073,-1,-1,1,14327.265,-296.321,-753.806,-7906.257,561,-247,-261
3.466827,-36,199,-2097,1,-1,2,14327.346,-296.181,-753.785,-7906.117
3.486785,-22,195,-2099,1,-1,2,14327.270,-296.207,-753.836,-7906.248
3.506774,-22,206,-2099,-1,-1,0,14327.274,-296.134,-753.619,-7906.264
3.526763,-23,206,-2071,0,0,-1,14327.245,-296.188,-753.584,-7906.318
3.546752,-28,205,-2103,-2,-2,-1,14327.213,-296.252,-753.679,-7906.364,553,-243,-251,35206
3.566741,-25,208,-2093,-1,-1,-1,14327.198,-296.343,-753.744,-7906.382
3.586730,-36,204,-2102,-2,-1,0,14327.280,-296.248,-753.750,-7906.237
3.606720,-40,207,-2097,-2,-2,1,14327.212,-296.130,-753.689,-7906.371
3.626709,-19,208,-2081,0,0,-1,14327.166,-295.944,-753.676,-7906.462
3.646698,-38,197,-2074,-2,-1,-1,14327.204,-295.757,-753.783,-7906.389,555,-248,-253
3.666687,-16,210,-2068,-1,-1,0,14327.210,-295.830,-753.920,-7906.363
3.686676,-41,198,-2102,-2,-2,0,14327.227,-295.743,-753.931,-7906.335
3.706665,-32,216,-2115,0,0,0,14327.284,-295.527,-754.100,-7906.222
3.726654,-11,198,-2074,1,2,0,14327.318,-295.513,-754.102,-7906.161
3.746643,-21,196,-2090,-1,-2,1,14327.271,-295.330,-754.276,-7906.237,550,-240,-265
3.766632,-19,226,-2099,1,1,0,14327.261,-295.326,-754.407,-7906.244
3.786621,-35,206,-2073,-1,-1,-1,14327.355,-295.408,-754.376,-7906.072
3.806610,-19,196,-2057,0,0,0,14327.427,-295.432,-754.533,-7905.926
3.826629,-28,211,-2086,-2,-2,3,14327.486,-295.511,-754.423,-7905.826
3.846588,-23,214,-2081,-2,-1,0,14327.432,-295.627,-754.408,-7905.922,557,-237,-259
3.866577,-17,204,-2087,-1,-1,-1,14327.415,-295.894,-754.402,-7905.943
3.886566,-19,206,-2085,-1,-2,0,14327.349,-295.864,-754.322,-7906.072
3.906555,-23,202,-2074,0,0,-1,14327.414,-295.725,-754.203,-7905.970
3.926544,-17,210,-2087,1,2,2,14327.400,-295.799,-754.320,-7905.982
3.946533,-19,208,-2123,-1,-1,0,14327.493,-295.975,-754.286,-7905.809,550,-243,-258
3.966522,-25,206,-2073,1,1,2,14327.485,-295.843,-754.405,-7905.818
3.986511,-23,210,-2083,-1,-1,-2,14327.603,-295.815,-754.471,-7905.598
4.006500,-38,205,-2113,-2,-1,1,14327.577,-295.753,-754.435,-7905.652
4.026489,-29,200,-2069,2,0,-1,14327.576,-295.653,-754.332,-7905.667
4.046478,-35,198,-2117,0,0,-2,14327.542,-295.649,-754.513,-7905.712,567,-240,-262,35232
4.066467,-21,203,-2065,-2,-2,-1,14327.529,-295.648,-754.602,-7905.727
4.086456,-24,214,-2083,0,1,-1,14327.428,-295.764,-754.704,-7905.896
4.106445,-23,190,-2099,-2,-3,-1,14327.415,-295.713,-754.867,-7905.905
4.126434,-10,220,-2093,-2,1,0,14327.373,-295.517,-754.829,-7905.992
4.146423,-31,195,-2091,0,0,-3,14327.299,-295.578,-754.860,-7906.122,557,-239,-247
4.166412,-42,215,-2081,1,0,-2,14327.254,-295.579,-754.672,-7906.220
4.186401,-23,205,-2065,0,0,-3,14327.265,-295.680,-754.571,-7906.207
4.206390,-14,210,-2105,-1,-2,2,14327.242,-295.650,-754.414,-7906.264
4.226379,-26,203,-2090,-2,-1,1,14327.234,-295.706,-754.390,-7906.280
4.246368,-40,214,-2075,-1,-1,0,14327.251,-295.614,-754.354,-7906.256,566,-237,-263
4.266357,-36,200,-2099,-1,-1,1,14327.243,-295.486,-754.537,-7906.257
4.286346,-22,203,-2090,1,2,1,14327.268,-295.504,-754.789,-7906.187
4.306335,-28,207,-2123,-2,-2,1,14327.279,-295.493,-754.899,-7906.157
4.326324,-20,208,-2117,-2,-1,-1,14327.229,-295.508,-754.826,-7906.254
4.346313,-33,213,-2082,0,-1,-2,14327.200,-295.426,-754.939,-7906.298,560,-243,-269
4.366302,-47,208,-2072,-1,-1,-1,14327.150,-295.349,-755.056,-7906.381
4.386291,-26,210,-2080,0,0,1,14327.184,-295.242,-755.132,-7906.316
4.406280,-27,216,-2083,2,0,0,14327.220,-295.190,-755.096,-7906.256
4.426239,-28,202,-2094,0,0,-1,14327.215,-295.100,-755.116,-7906.266
4.446258,-21,207,-2067,0,1,0,14327.156,-294.941,-754.975,-7906.394,558,-226,-267
4.466247,-45,225,-2090,1,0,-2,14327.198,-294.875,-754.817,-7906.335
4.486236,-29,199,-2104,1,0,-1,14327.235,-294.845,-754.689,-7906.281
4.506195,-28,224,-2102,0,-1,0,14327.273,-294.819,-754.668,-7906.216
4.526214,-20,208,-2066,0,0,1,14327.279,-294.937,-754.722,-7906.194
4.546173,-35,195,-2080,-1,-1,0,14327.378,-294.957,-754.736,-7906.013,560,-250,-258,35220
4.566162,-13,197,-2094,-1,-1,2,14327.282,-294.978,-754.780,-7906.183
4.586151,-7,200,-2086,-2,-3,-1,14327.316,-295.033,-754.768,-7906.119
4.606170,-16,217,-2081,0,0,2,14327.268,-295.113,-754.715,-7906.210
4.626129,-18,188,-2097,0,0,-2,14327.282,-295.174,-754.668,-7906.186
4.646209,-24,208,-2061,-2,-1,0,14327.279,-295.058,-754.648,-7906.198,565,-233,-260
4.666137,-25,207,-2088,0,0,-2,14327.335,-295.097,-754.594,-7906.100
4.686096,-27,194,-2095,-2,-1,0,14327.387,-295.379,-754.372,-7906.016
4.706115,-36,216,-2083,0,-1,0,14327.388,-295.131,-754.413,-7906.019
4.726074,-30,218,-2057,1,3,0,14327.388,-295.372,-754.485,-7906.003
4.746093,-28,203,-2091,-2,-2,0,14327.380,-295.288,-754.533,-7906.017,564,-244,-254
4.766052,-1,200,-2078,2,0,0,14327.413,-295.273,-754.584,-7905.952
4.786041,-16,198,-2091,0,1,-2,14327.347,-295.313,-754.416,-7906.087
4.806060,-18,205,-2078,-1,-1,-2,14327.335,-295.378,-754.492,-7906.098
4.826049,-37,207,-2091,0,0,1,14327.449,-295.582,-754.479,-7905.885
4.846038,-24,206,-2095,-1,-2,-1,14327.508,-295.634,-754.299,-7905.794,564,-237,-261
4.865997,-24,195,-2074,1,0,1,14327.457,-295.631,-754.291,-7905.888
4.885986,-25,188,-2086,-2,-2,0,14327.404,-295.691,-754.235,-7905.987
4.905975,-28,219,-2083,1,0,-3,14327.435,-295.678,-754.292,-7905.926
4.925994,-18,209,-2104,-3,-2,1,14327.360,-295.864,-754.232,-7906.061
4.945983,-38,216,-2133,-1,-1,0,14327.314,-295.693,-754.255,-7906.148,564,-244,-259
4.965972,-26,207,-2121,0,0,-1,14327.411,-295.574,-754.392,-7905.962
4.985931,-24,200,-2078,-2,-1,2,14327.424,-295.608,-754.320,-7905.945
5.005920,-9,204,-2096,-1,-2,-1,14327.480,-295.606,-754.344,-7905.841
5.025909,-25,219,-2102,1,0,-1,14327.474,-295.667,-754.236,-7905.861
5.045898,-14,218,-2099,-1,-2,-1,14327.333,-295.790,-754.218,-7906.113,560,-248,-265,35189
5.065887,-28,199,-2074,-2,-1,-1,14327.255,-295.867,-754.363,-7906.237
5.085907,-25,194,-2071,1,0,0,14327.175,-296.027,-754.351,-7906.378
5.105865,-4,200,-2093,-3,-3,-1,14327.179,-296.216,-754.377,-7906.361
5.125854,-18,214,-2066,-3,-2,-1,14326.990,-296.059,-754.338,-7906.714
5.145843,-4,209,-2102,-1,-1,-3,14326.931,-296.349,-754.255,-7906.817,567,-245,-255
5.165832,-15,211,-2079,-1,-2,0,14326.947,-296.338,-754.197,-7906.794
5.185821,-38,202,-2100,-2,-1,0,14327.005,-296.452,-754.088,-7906.696
5.205810,-19,206,-2082,0,-2,0,14327.017,-296.449,-754.110,-7906.672
5.225799,-37,217,-2074,-1,-2,1,14327.041,-296.294,-754.007,-7906.643
5.245788,-24,199,-2106,2,1,0,14327.058,-296.172,-754.081,-7906.610,558,-238,-260
5.265777,-22,200,-2084,-2,-1,0,14326.995,-296.649,-753.934,-7906.720
5.285766,-28,188,-2100,-1,-2,0,14326.879,-296.590,-754.115,-7906.916
5.305755,-37,215,-2106,1,0,-1,14326.895,-296.714,-753.873,-7906.905
5.325744,-31,202,-2071,0,-4,0,14326.860,-296.691,-754.031,-7906.955
5.345733,-25,210,-2115,0,2,0,14326.849,-296.790,-754.103,-7906.964,559,-249,-254
5.365722,-24,205,-2117,0,0,1,14326.801,-296.700,-754.054,-7907.058
5.385711,-29,206,-2088,0,-1,-1,14326.802,-296.540,-754.036,-7907.065
5.405700,-17,203,-2066,1,0,-2,14326.845,-296.651,-754.269,-7906.960
5.425689,-24,193,-2093,-4,-2,-1,14326.837,-296.579,-754.346,-7906.971
5.445678,-32,205,-2103,0,1,0,14326.834,-296.507,-754.273,-7906.985,564,-242,-261
5.465667,-9,189,-2087,0,-1,-1,14326.897,-296.515,-754.005,-7906.896
5.485656,-20,191,-2099,1,-1,0,14326.936,-296.602,-753.818,-7906.841
5.505645,-20,204,-2080,-2,-2,1,14327.014,-296.564,-753.778,-7906.704
5.525634,-10,193,-2065,0,0,-1,14326.818,-296.524,-753.796,-7907.059
5.545623,-33,204,-2109,-1,-2,-3,14326.829,-296.567,-753.850,-7907.033,559,-239,-263,35189
5.565612,-13,196,-2080,-2,-1,-1,14326.905,-296.522,-753.880,-7906.894
5.585601,-35,229,-2112,-2,-1,0,14326.856,-296.511,-753.827,-7906.988
5.605590,-15,206,-2092,0,0,-1,14326.811,-296.337,-753.805,-7907.078
5.625579,-31,205,-2112,1,1,-1,14326.777,-296.378,-753.864,-7907.132
5.645568,-26,193,-2100,0,1,-2,14326.816,-296.118,-753.946,-7907.063,554,-237,-266
5.665557,-37,215,-2088,0,2,0,14326.829,-296.189,-753.913,-7907.040
5.685546,-31,212,-2090,-1,-2,-1,14326.782,-296.142,-753.868,-7907.133
5.705535,-27,202,-2080,1,-1,-1,14326.668,-296.085,-753.887,-7907.339
5.725524,-2,221,-2105,0,0,-1,14326.678,-296.142,-753.933,-7907.313
5.745513,-39,217,-2097,-2,-1,-2,14326.689,-296.081,-754.166,-7907.274,560,-243,-255
5.765502,-10,202,-2099,-2,-2,0,14326.723,-296.011,-754.211,-7907.211
5.785491,-35,216,-2087,0,1,-1,14326.753,-295.665,-754.106,-7907.180
5.805480,-31,203,-2105,1,2,1,14326.716,-295.743,-754.221,-7907.233
5.825470,-25,179,-2087,-3,-2,0,14326.763,-295.798,-754.368,-7907.131
5.845459,-20,213,-2118,-1,-1,0,14326.735,-295.797,-754.331,-7907.187,554,-249,-256
5.865509,-43,198,-2079,-1,-2,1,14326.661,-295.887,-754.351,-7907.315
5.885437,-19,202,-2085,-2,-1,-3,14326.610,-295.746,-754.479,-7907.400
5.905426,-18,205,-2070,1,0,-2,14326.561,-295.778,-754.455,-7907.490
5.925415,-31,208,-2080,-1,-1,0,14326.603,-295.814,-754.238,-7907.433
5.945404,-24,211,-2111,1,0,0,14326.665,-295.730,-754.144,-7907.333,561,-249,-259
5.965393,-28,213,-2110,-1,-2,0,14326.680,-295.769,-753.991,-7907.319
5.985351,-15,182,-2086,0,-1,-2,14326.651,-295.732,-754.023,-7907.369
6.005371,-11,213,-2088,-2,-1,0,14326.689,-295.788,-753.914,-7907.309
6.025360,-21,197,-2120,-1,-1,0,14326.705,-295.774,-753.913,-7907.282
6.045349,-26,205,-2082,-1,-1,-1,14326.729,-295.723,-753.667,-7907.263,559,-239,-263,35222
6.065338,-28,207,-2102,-2,-1,-1,14326.726,-295.680,-753.531,-7907.282
6.085327,-11,215,-2079,1,0,-1,14326.738,-295.620,-753.678,-7907.250
6.105285,-22,225,-2083,-2,-1,-1,14326.821,-295.446,-753.645,-7907.108
6.125305,-13,199,-2083,2,1,0,14326.790,-295.386,-753.641,-7907.167
6.145263,-28,218,-2094,0,0,-2,14326.788,-295.404,-753.493,-7907.183,566,-244,-247
6.165252,-25,228,-2065,0,1,-1,14326.793,-295.501,-753.622,-7907.159
6.185241,-16,207,-2085,-3,-3,-1,14326.842,-295.577,-753.782,-7907.052
6.205261,-9,192,-2062,0,1,1,14326.798,-295.419,-753.910,-7907.126
6.225250,-35,224,-2092,0,0,0,14326.800,-295.331,-753.862,-7907.130
6.245208,-17,200,-2116,0,0,-2,14326.811,-295.253,-754.010,-7907.099,560,-240,-258
6.265197,-27,199,-2081,-1,-3,1,14326.803,-295.236,-754.102,-7907.106
6.285217,-19,211,-2076,0,0,0,14326.815,-295.181,-754.141,-7907.082
6.305175,-26,207,-2093,-2,-1,0,14326.871,-295.110,-754.171,-7906.981
6.325164,-18,191,-2079,-1,1,3,14326.993,-295.170,-754.213,-7906.753
6.345153,-44,212,-2069,-2,-1,2,14326.965,-295.447,-754.143,-7906.800,563,-238,-253
6.365173,-33,217,-2078,-2,-2,-1,14326.852,-295.594,-754.202,-7906.994
6.385131,-29,204,-2105,-2,-1,-2,14326.904,-295.778,-754.305,-7906.882
6.405151,-21,208,-2073,-1,-1,2,14326.988,-295.793,-754.331,-7906.728
6.425140,-32,211,-2086,0,0,1,14327.035,-295.731,-754.175,-7906.660
6.445129,-19,195,-2110,3,1,0,14327.069,-295.545,-753.972,-7906.625,554,-232,-266
6.465087,-24,208,-2070,1,0,-2,14327.162,-295.436,-753.841,-7906.472
6.485076,-2,221,-2112,-1,-1,0,14327.224,-295.426,-753.757,-7906.368
6.505096,-26,208,-2098,-2,-1,1,14327.136,-295.285,-753.978,-7906.511
6.525054,-34,192,-2062,0,0,-2,14327.144,-295.259,-753.768,-7906.518
6.545043,-23,205,-2082,-2,-1,-1,14327.094,-295.299,-753.895,-7906.596,558,-236,-255,35236
6.565032,-31,209,-2085,-2,-3,0,14327.054,-295.335,-753.757,-7906.680
6.585022,-18,215,-2074,-1,-1,-1,14327.055,-295.283,-753.696,-7906.685
6.605041,-30,210,-2118,0,0,-2,14326.988,-295.472,-753.618,-7906.808
6.625000,-25,190,-2075,-1,-2,0,14327.002,-295.526,-753.692,-7906.774
6.644989,-30,188,-2106,-1,-2,-1,14326.984,-295.338,-753.740,-7906.808,555,-228,-253
6.664978,-17,219,-2107,1,2,-1,14326.959,-295.283,-753.849,-7906.844
6.684967,-19,202,-2103,-3,-2,-2,14326.946,-295.064,-753.815,-7906.879
6.704986,-26,206,-2074,0,0,-1,14326.948,-294.844,-753.969,-7906.870
6.724945,-31,215,-2111,-1,0,0,14326.923,-294.959,-753.953,-7906.913
6.744964,-29,200,-2090,-1,-2,-1,14326.954,-294.943,-754.239,-7906.830,555,-240,-248
6.764923,-30,216,-2103,-1,-1,0,14326.956,-294.981,-754.065,-7906.841
6.784912,-8,215,-2118,1,0,0,14327.016,-294.999,-754.100,-7906.728
6.804901,-31,192,-2124,0,0,-1,14326.965,-295.007,-753.768,-7906.852
6.824890,-22,195,-2131,1,-2,0,14327.030,-295.067,-753.595,-7906.748
6.844879,-43,211,-2085,0,-3,1,14327.129,-294.712,-753.533,-7906.588,561,-239,-259
6.864868,-30,187,-2109,2,3,-1,14327.146,-294.822,-753.484,-7906.558
6.884857,-9,197,-2090,0,-2,1,14327.213,-294.808,-753.267,-7906.458
6.904846,-24,210,-2096,0,0,-1,14327.319,-294.904,-753.189,-7906.270
6.924835,-23,203,-2128,1,2,1,14327.374,-294.845,-752.847,-7906.205
6.944824,-21,220,-2068,0,-3,1,14327.290,-294.744,-752.910,-7906.354,559,-244,-254
6.964813,-9,186,-2105,-1,-1,-2,14327.336,-294.701,-752.859,-7906.278
6.984802,-28,204,-2092,1,0,2,14327.379,-294.979,-752.587,-7906.215
7.004791,-3,221,-2062,-2,-3,1,14327.388,-294.773,-752.491,-7906.215
7.024780,-18,193,-2067,-1,-3,-1,14327.416,-294.767,-752.389,-7906.176
7.044769,-22,215,-2097,1,0,1,14327.448,-295.078,-752.411,-7906.104,554,-247,-254,35206
7.064758,-51,205,-2076,0,1,-1,14327.520,-295.292,-752.395,-7905.966
7.084808,-17,215,-2080,-1,-2,1,14327.426,-294.643,-752.628,-7906.139
7.104736,-27,214,-2108,0,2,-2,14327.363,-294.800,-752.471,-7906.263
7.124725,5,202,-2087,-2,-3,0,14327.468,-294.810,-752.516,-7906.067
7.144714,126,140,-1958,-1,-1,1,14327.516,-295.157,-752.627,-7905.957,559,-247,-261
7.164703,-19,173,-2056,0,-1,-1,14327.650,-295.126,-752.511,-7905.726
7.184692,-39,214,-2081,1,0,2,14327.742,-294.749,-752.624,-7905.563
7.204681,-48,218,-2082,0,0,1,14327.764,-294.758,-752.546,-7905.530
7.224670,-28,202,-2123,1,2,1,14327.726,-294.677,-752.400,-7905.615
7.244659,8,189,-2074,-2,-2,1,14327.612,-294.151,-752.659,-7905.817,559,-247,-256
7.264648,-59,207,-2083,2,7,-2,14327.676,-294.266,-752.498,-7905.712
7.284637,-24,197,-2107,2,0,1,14327.683,-294.037,-752.417,-7905.716
7.304626,-27,177,-2071,4,3,-2,14327.617,-294.157,-752.339,-7905.839
7.324615,-21,193,-2108,0,-1,-1,14327.567,-293.824,-752.306,-7905.945
7.344604,-26,199,-2127,-1,0,-1,14327.613,-293.880,-752.119,-7905.876,560,-243,-255
7.364593,-14,199,-2100,-1,0,1,14327.546,-294.029,-752.095,-7905.994
7.384582,-35,226,-2084,-1,-2,-1,14327.480,-294.282,-751.920,-7906.122
7.404571,-36,209,-2090,-1,-4,0,14327.566,-294.115,-751.966,-7905.968
7.424560,-24,213,-2084,0,3,1,14327.564,-293.959,-752.167,-7905.959
7.444549,-23,211,-2082,-2,-1,0,14327.574,-294.212,-752.102,-7905.938,555,-233,-255
7.464538,-16,197,-2098,0,-2,0,14327.558,-293.950,-752.267,-7905.960
7.484527,-30,212,-2108,1,0,0,14327.598,-293.793,-752.539,-7905.868
7.504516,-36,214,-2096,-3,-2,1,14327.645,-291.554,-753.009,-7905.821
7.524505,-23,216,-2081,4,12,-1,14327.740,-290.917,-753.343,-7905.640
7.544494,-10,208,-2074,-1,-1,-2,14327.831,-291.378,-753.304,-7905.462,553,-248,-255,35206
7.564453,22,238,-2063,-3,-2,0,14327.967,-290.709,-753.186,-7905.250
7.584472,-84,242,-2122,4,3,2,14338.167,-288.901,-753.535,-7886.768
7.604431,-90,159,-2111,37,156,228,14363.491,-254.152,-763.670,-7840.776
7.624450,-13,216,-2102,5,20,194,14367.672,-251.715,-764.287,-7833.131
7.644439,-24,195,-2075,3,13,21,14368.275,-250.898,-764.669,-7832.014,559,-242,-254
7.664428,-14,210,-2119,1,1,4,14368.457,-250.224,-764.947,-7831.673
7.684387,-32,214,-2088,-1,-1,1,14368.646,-250.339,-764.835,-7831.335
7.704406,-39,205,-2074,-2,-7,2,14368.860,-252.502,-764.231,-7830.932
7.724395,-33,206,-2098,-5,-19,5,14369.100,-253.388,-764.134,-7830.471
7.744354,-22,179,-2084,-1,3,0,14368.881,-250.567,-764.922,-7830.887,553,-248,-260
7.764373,-28,210,-2100,2,13,-4,14368.988,-252.960,-764.251,-7830.681
7.784362,-36,199,-2103,-8,-28,3,14369.040,-254.232,-763.837,-7830.584
7.804351,-33,213,-2084,1,3,-3,14369.049,-254.600,-763.769,-7830.562
7.824340,-39,200,-2092,-3,-11,0,14369.082,-255.202,-763.480,-7830.510
7.844329,-34,209,-2100,-1,-3,-1,14369.056,-255.272,-763.508,-7830.552,557,-242,-259
7.864318,-16,218,-2133,-2,-2,-1,14369.167,-258.148,-762.660,-7830.337
7.884307,-36,191,-2109,-9,-39,4,14369.171,-260.451,-761.946,-7830.323
7.904296,-44,209,-2105,-5,-17,1,14369.332,-265.182,-760.705,-7829.990
7.924285,-14,198,-2091,-8,-31,4,14369.418,-271.110,-758.996,-7829.795
7.944244,-29,215,-2104,-8,-36,3,14369.534,-275.296,-757.716,-7829.560,555,-236,-248
7.964263,-38,210,-2074,-4,-17,3,14369.496,-275.175,-757.719,-7829.633
7.984222,-30,218,-2082,0,5,-2,14369.420,-274.099,-758.032,-7829.781
8.004241,-32,204,-2081,1,7,-2,14369.371,-273.598,-758.165,-7829.874
8.024200,-24,210,-2070,-1,-2,-2,14369.444,-274.126,-757.860,-7829.753
8.044220,-32,207,-2093,-1,-7,1,14369.490,-274.970,-757.332,-7829.688,561,-249,-261,35206
8.064178,-48,190,-2105,-1,-7,2,14369.442,-275.257,-757.221,-7829.777
8.084198,-40,205,-2082,0,1,-2,14369.408,-274.810,-757.395,-7829.838
8.104156,-11,205,-2098,2,2,-2,14369.444,-274.275,-757.510,-7829.781
8.124145,-31,204,-2091,0,0,1,14369.452,-274.740,-757.409,-7829.759
8.144134,-29,202,-2085,-2,-5,-1,14369.399,-275.080,-757.293,-7829.856,566,-244,-259
8.164123,-54,219,-2107,-1,-1,0,14369.470,-275.471,-757.176,-7829.722
8.184112,-40,194,-2067,-1,-3,1,14369.462,-275.028,-757.191,-7829.753
8.204101,-17,191,-2066,1,3,-1,14369.405,-274.785,-757.185,-7829.865
8.224090,-35,219,-2094,0,0,0,14369.513,-274.784,-757.125,-7829.674
8.244079,-32,210,-2118,-1,-2,-1,14369.574,-275.140,-756.855,-7829.576,559,-249,-259
8.264099,-35,197,-2104,0,-1,0,14369.619,-275.134,-756.685,-7829.509
8.284057,-28,208,-2078,1,0,-1,14369.639,-275.250,-756.572,-7829.480
8.304107,-20,189,-2084,-1,-2,1,14369.650,-274.882,-756.657,-7829.464
8.324035,-29,210,-2105,2,1,0,14369.677,-274.839,-756.506,-7829.430
8.346862,-36,206,-2092,1,0,0,14369.664,-274.889,-756.759,-7829.428,560,-245,-262
8.364013,-34,190,-2110,-4,-1,1,14369.666,-275.156,-756.912,-7829.400
8.384002,-31,215,-2076,-3,-1,0,14369.711,-275.087,-756.814,-7829.329
8.403991,-40,211,-2108,-1,-1,0,14369.829,-274.741,-756.777,-7829.129
8.424041,-31,215,-2102,1,1,0,14369.814,-274.533,-756.734,-7829.168
8.443969,-41,219,-2086,1,0,-2,14369.780,-274.775,-756.820,-7829.213
8.463958,-20,194,-2086,-3,-3,-1,14369.778,-274.629,-756.981,-7829.207,567,-245,-269
8.483947,-42,203,-2099,-1,-1,-1,14369.779,-274.566,-756.964,-7829.208
8.503936,-44,220,-2092,0,0,-1,14369.710,-274.006,-757.193,-7829.332
8.523925,-27,211,-2069,0,8,-3,14369.688,-273.119,-757.593,-7829.364
8.543914,-28,218,-2088,2,11,-2,14369.639,-271.233,-757.980,-7829.483,567,-245,-269,35191
8.563903,-29,220,-2106,2,8,0,14369.664,-271.124,-757.910,-7829.447,552,-244,-259
8.583892,-25,197,-2109,0,-1,0,14369.593,-271.291,-758.021,-7829.561
8.603881,-33,198,-2088,-2,-1,-1,14369.617,-270.661,-758.061,-7829.536
8.623901,-17,209,-2116,4,4,0,14369.565,-269.705,-758.139,-7829.657
8.643859,-18,202,-2090,2,4,-1,14369.575,-269.384,-758.164,-7829.647
8.663848,-28,212,-2069,0,1,-1,14369.581,-269.056,-758.337,-7829.630,553,-240,-262
8.683837,-39,205,-2112,0,3,0,14369.631,-268.273,-758.322,-7829.567
8.703826,-44,200,-2118,2,4,-1,14369.647,-267.689,-758.424,-7829.547
8.723815,-26,212,-2060,2,2,-1,14369.642,-267.240,-758.368,-7829.577
8.743804,-18,208,-2088,1,0,0,14369.647,-267.087,-758.387,-7829.571
8.763793,-24,213,-2091,1,0,0,14369.617,-266.837,-758.321,-7829.642,558,-253,-265
8.783782,-33,197,-2079,-1,-1,-1,14369.603,-266.702,-758.231,-7829.681
8.803772,-27,206,-2088,0,-1,0,14369.645,-266.774,-758.160,-7829.608
8.823761,-21,206,-2095,-2,-3,1,14369.566,-266.728,-758.058,-7829.765
8.843750,-43,208,-2113,-1,-2,-1,14369.474,-266.884,-758.128,-7829.921
8.863739,-31,207,-2115,-1,-1,-1,14369.470,-267.029,-758.012,-7829.934,559,-242,-263
8.883728,-46,191,-2113,1,-2,-2,14369.448,-266.877,-758.131,-7829.968
8.903717,-24,190,-2066,1,1,1,14369.501,-266.519,-758.136,-7829.884
8.923706,-33,207,-2075,-1,-1,-1,14369.535,-266.212,-758.054,-7829.840
8.943695,-38,199,-2069,0,2,1,14369.586,-266.014,-757.996,-7829.759
8.963684,-16,211,-2093,0,1,-1,14369.507,-265.676,-758.104,-7829.903,552,-237,-261
8.983673,-31,218,-2116,2,2,-2,14369.527,-265.051,-758.141,-7829.884
9.003662,-28,206,-2074,2,2,-1,14369.481,-264.587,-758.151,-7829.984
9.023651,-27,207,-2108,1,2,0,14369.393,-264.020,-758.261,-7830.154
9.043640,-26,206,-2088,-1,1,0,14369.375,-263.559,-758.629,-7830.167,552,-237,-261,35200
9.063629,-30,205,-2066,-1,3,-1,14369.257,-262.372,-759.003,-7830.388,560,-248,-265
9.083587,-37,208,-2068,1,2,0,14369.267,-262.633,-759.009,-7830.360
9.103607,-38,207,-2066,-3,-6,1,14369.445,-264.522,-758.408,-7830.027
9.123565,-38,220,-2082,-3,-10,1,14369.540,-267.858,-757.409,-7829.836
9.143585,33,199,-2130,-12,-51,5,14369.620,-276.565,-755.246,-7829.596
9.163574,-7,193,-2105,-8,-31,1,14369.633,-274.876,-755.758,-7829.582,557,-239,-266
9.183563,11,226,-2096,-1,4,-2,14369.772,-276.087,-755.165,-7829.341
9.203521,-31,210,-2103,-6,-31,4,14371.112,-286.964,-752.270,-7826.770
9.223510,-38,211,-2099,-13,-46,12,14371.752,-303.184,-748.739,-7825.320
9.243530,-292,43,-2170,-52,-177,23,14372.330,-337.395,-742.076,-7823.493
9.263519,-18,207,-2116,-17,-20,7,14372.342,-337.234,-742.082,-7823.478,560,-243,-251
9.283508,47,220,-2103,-2,-1,0,14372.301,-337.249,-742.127,-7823.549
9.303497,-17,224,-2082,0,0,0,14372.285,-337.468,-741.868,-7823.594
9.323486,-19,210,-2088,-1,-1,1,14372.244,-337.429,-741.862,-7823.670
9.343475,-29,212,-2084,-1,-1,0,14372.356,-337.405,-741.686,-7823.483
9.363525,-7,212,-2109,1,-1,1,14372.358,-337.383,-741.586,-7823.490,567,-238,-260
9.383453,-10,202,-2083,-1,-1,0,14372.248,-337.502,-741.675,-7823.678
9.403411,8,211,-2084,0,0,-3,14372.001,-337.508,-741.560,-7824.142
9.423400,-291,102,-2127,-2,-1,-6,14367.027,-337.306,-741.441,-7833.291
9.443389,-29,159,-1951,-2,-20,-204,14301.608,-340.559,-737.966,-7952.287
9.463409,216,230,-2150,2,-85,-983,14210.305,-346.804,-733.150,-8114.485,575,-233,-253
9.483367,-70,286,-2184,1,-84,-959,14149.028,-350.762,-729.812,-8220.996
9.503356,-53,247,-2084,2,-51,-611,14091.084,-353.804,-727.243,-8320.020
9.523437,54,292,-2131,3,-69,-806,13995.708,-358.990,-722.463,-8479.667
9.543334,24,312,-2039,6,-101,-1161,13898.573,-364.855,-717.733,-8638.104,575,-233,-253,35220
9.563324,34,221,-2191,4,-83,-958,13830.662,-369.404,-714.402,-8746.507,552,-239,-263
9.583313,-6,210,-2075,2,-53,-606,13796.659,-371.573,-712.079,-8800.143
9.603302,-44,142,-2173,-2,4,-226,13790.600,-371.067,-712.499,-8809.622
9.623291,-14,231,-2078,-1,0,2,13798.068,-381.429,-700.534,-8798.438
9.643280,186,230,-2074,48,-183,96,13810.015,-411.500,-669.138,-8780.766
9.663269,170,257,-2098,63,-248,194,13849.187,-429.638,-651.877,-8719.284,576,-234,-254
9.683258,93,198,-2117,-3,32,588,13920.266,-418.265,-664.222,-8604.969
9.703247,81,256,-2087,-21,114,819,14003.062,-409.840,-674.068,-8469.200
9.723236,-115,178,-2157,-35,179,1025,14117.341,-376.173,-707.991,-8276.072
9.743225,-201,87,-2011,-75,354,1358,14220.995,-361.988,-720.232,-8096.231
9.763214,-29,222,-2028,2,82,1011,14284.990,-357.042,-724.855,-7982.581,573,-230,-266
9.783203,-267,200,-2425,-60,233,731,14351.163,-341.495,-738.786,-7862.387
9.803192,-101,180,-2142,0,77,830,14409.815,-337.260,-741.515,-7754.294
9.823181,-113,196,-2042,3,31,547,14434.627,-343.558,-734.261,-7708.425
9.843170,-100,251,-1976,5,3,213,14441.606,-333.230,-743.911,-7694.868
9.863159,3,187,-2070,-3,9,26,14442.242,-334.040,-743.296,-7693.699,587,-243,-255
9.883178,-156,337,-3137,9,-30,19,14447.020,-334.189,-742.919,-7684.754
9.903137,20,223,-1997,-20,75,74,14456.854,-331.487,-745.035,-7666.148
9.923126,-22,218,-2096,1,13,139,14474.061,-330.415,-746.251,-7633.540
9.943115,-24,221,-2074,-2,22,245,14493.039,-329.074,-747.418,-7597.390
9.963104,-7,193,-2140,-1,16,202,14510.126,-327.973,-747.757,-7564.719,587,-240,-258
9.983093,46,199,-2065,-2,10,190,14528.066,-330.631,-745.281,-7530.336
10.003082,6,195,-2022,-2,29,284,14554.995,-326.015,-749.795,-7477.905
10.023071,-84,197,-2194,-6,39,355,14583.027,-323.814,-751.255,-7423.040
10.043060,-40,225,-2043,0,31,343,14608.637,-322.408,-752.404,-7372.456,587,-240,-258,35214
10.063049,-20,221,-2082,0,20,304,14627.845,-320.623,-753.960,-7334.190,588,-244,-259
10.083038,-27,179,-2083,-5,17,203,14639.506,-319.611,-754.721,-7310.851
10.103027,-13,214,-2073,-1,7,89,14642.051,-319.175,-754.875,-7305.756
10.123016,-6,210,-2087,0,0,5,14642.102,-319.448,-754.887,-7305.641
10.143005,-17,224,-2081,-1,-1,0,14642.175,-319.591,-754.885,-7305.489
10.162994,-14,225,-2076,-3,-2,0,14642.324,-319.706,-754.863,-7305.186,589,-253,-258
10.182983,-8,202,-2090,-2,-2,3,14646.628,-319.399,-755.202,-7296.532
10.202972,-10,249,-2054,-1,8,113,14660.515,-318.692,-756.361,-7268.499
10.222961,-22,218,-2083,-2,17,214,14679.999,-317.314,-756.889,-7229.072
10.242950,-37,179,-2125,2,20,254,14699.575,-315.852,-757.854,-7189.146
10.262939,3,225,-2105,-3,18,241,14717.742,-314.488,-758.762,-7151.845,593,-249,-254
10.282928,-1,198,-2090,-2,18,211,14728.819,-313.405,-759.252,-7128.999
10.302886,-9,205,-2078,0,12,131,14743.697,-312.281,-759.862,-7098.164
10.322876,-28,140,-2082,-3,21,255,14767.835,-310.689,-761.229,-7047.728
10.342865,-28,198,-2074,-1,21,257,14771.034,-310.428,-761.155,-7041.042
10.362854,20,206,-2083,0,0,-8,14770.629,-310.214,-760.996,-7041.919,582,-260,-272
10.382873,-7,229,-2051,-2,-2,-12,14770.153,-310.283,-761.154,-7042.895
10.402862,-13,200,-2099,-1,-1,-3,14770.098,-310.277,-761.085,-7043.020
10.422851,-23,217,-2097,0,0,-2,14770.004,-310.189,-761.140,-7043.215
10.442840,-17,218,-2057,-1,-1,-1,14769.969,-310.119,-761.054,-7043.299
10.462829,-31,209,-2121,0,0,-1,14769.901,-309.925,-760.978,-7043.460,592,-257,-262
10.482818,30,139,-2243,1,0,-2,14769.973,-309.731,-761.465,-7043.264
10.502807,48,171,-2058,-6,-1,1,14776.459,-308.870,-761.735,-7029.655
10.522796,-19,204,-2099,-1,4,72,14776.831,-308.923,-761.744,-7028.871
10.542785,46,155,-2042,-2,-1,-4,14776.629,-308.986,-762.009,-7029.263,592,-257,-262,35216
10.562774,-39,185,-2033,-1,-2,-2,14776.561,-309.089,-761.733,-7029.430,581,-254,-254
10.582763,27,206,-2047,-3,-2,0,14776.540,-308.896,-761.652,-7029.493
10.602752,8,217,-2090,-1,-1,-1,14776.486,-308.659,-761.757,-7029.606
10.622711,5,216,-2104,-1,-1,-2,14776.524,-308.678,-761.715,-7029.529
10.642730,-17,208,-2075,-1,-2,2,14776.522,-308.739,-761.702,-7029.533
10.662719,-8,210,-2068,-1,-3,1,14776.442,-308.868,-761.674,-7029.698,584,-255,-262
10.682708,-1,205,-2092,0,0,-1,14776.417,-308.914,-761.759,-7029.738
10.702697,-1,206,-2102,-1,-1,-2,14776.386,-308.949,-761.591,-7029.821
10.722686,7,186,-2050,-1,-2,-1,14776.338,-308.816,-761.475,-7029.940
10.742736,-14,197,-2109,1,-1,-2,14776.135,-308.701,-761.394,-7030.380
10.762664,-9,230,-2074,0,0,-3,14776.083,-308.520,-761.435,-7030.494,587,-253,-260
10.782653,-41,202,-2107,1,0,-2,14775.948,-308.579,-761.495,-7030.768
10.802642,0,191,-2108,-1,-1,-2,14775.868,-308.564,-761.573,-7030.929
10.822631,-19,204,-2057,-1,-3,-3,14775.829,-308.684,-761.402,-7031.024
10.842620,-13,223,-2105,0,0,0,14775.755,-308.579,-761.389,-7031.184
10.862609,-11,198,-2095,0,1,-1,14775.664,-308.421,-761.426,-7031.379,587,-257,-267
10.882568,-29,225,-2087,1,0,-2,14775.537,-308.262,-761.425,-7031.653
10.902587,-21,219,-2091,-1,-2,-2,14775.428,-308.086,-761.447,-7031.887
10.922576,-10,222,-2075,0,0,-2,14775.337,-308.055,-761.387,-7032.087
10.942565,-8,213,-2062,-3,-1,-1,14775.314,-308.186,-761.337,-7032.134
10.962554,-3,207,-2090,0,-1,0,14775.194,-308.194,-761.511,-7032.368,575,-253,-267
10.982543,-33,210,-2090,-3,-1,-1,14774.982,-308.194,-761.605,-7032.803
11.002502,89,210,-2103,-3,0,-5,14749.453,-309.466,-760.473,-7086.252
11.022522,-32,191,-2063,0,-37,-369,14743.392,-310.837,-759.595,-7098.889
11.042480,-29,197,-2091,-1,-4,-2,14743.303,-310.803,-759.328,-7099.105,575,-253,-267,35205
11.062469,-410,168,-2083,0,-1,-3,14741.994,-310.504,-759.746,-7101.789,594,-248,-267
11.082458,182,293,-2037,-2,-5,-61,14712.594,-311.310,-758.065,-7162.642
11.102447,-29,185,-2108,4,-31,-384,14703.730,-312.968,-757.161,-7180.844
11.122436,-7,205,-2074,-1,-2,-12,14703.580,-312.997,-757.000,-7181.166
11.142456,-2,209,-2098,-1,-1,-1,14703.584,-313.187,-757.203,-7181.129
11.162445,-24,189,-2113,-4,-2,-1,14703.503,-313.260,-757.298,-7181.280,577,-262,-267
11.182403,8,186,-2122,0,1,-1,14703.430,-313.218,-757.139,-7181.449
11.202423,-15,197,-2119,-1,-1,-2,14703.329,-313.245,-757.256,-7181.642
11.222381,-21,206,-2088,0,-1,-1,14703.191,-313.247,-757.318,-7181.918
11.242370,-7,165,-2116,-2,-1,-3,14703.137,-313.142,-757.352,-7182.031
11.262359,-20,185,-2111,-2,-1,-1,14703.065,-312.966,-757.370,-7182.183,584,-253,-260
11.282348,-17,178,-2106,1,1,-2,14702.983,-312.839,-757.564,-7182.336
11.302337,-4,187,-2076,-1,-1,-2,14702.938,-313.021,-757.526,-7182.424
11.322326,-43,375,-2148,-3,-1,0,14702.920,-313.079,-757.598,-7182.451
11.342315,-22,222,-2078,0,-1,-2,14702.829,-313.275,-757.865,-7182.601
11.362304,-9,205,-2093,-3,-1,-2,14702.725,-313.194,-758.071,-7182.795,582,-257,-267
11.382293,-17,205,-2065,-2,0,-1,14702.631,-313.049,-758.062,-7182.996
11.402282,-14,191,-2119,0,0,-2,14702.553,-312.987,-758.094,-7183.154
11.422271,-14,200,-2078,-1,-1,-1,14702.460,-313.063,-757.916,-7183.360
11.442260,-14,232,-2072,1,0,0,14702.361,-312.926,-758.132,-7183.545
11.462249,4,211,-2078,-1,-1,-2,14702.242,-313.014,-758.174,-7183.782,577,-257,-262
11.482238,-1,216,-2083,-1,-1,-2,14702.186,-313.037,-758.090,-7183.904
11.502227,-17,210,-2082,-2,-1,1,14702.114,-312.982,-757.904,-7184.073
11.522216,-35,206,-2084,2,0,-2,14702.052,-312.869,-757.530,-7184.244
11.542205,-32,217,-2095,2,0,-3,14702.053,-312.850,-757.415,-7184.256,577,-257,-262,35216
11.562194,-5,210,-2109,0,0,-1,14702.054,-312.712,-757.431,-7184.257,588,-259,-256
11.582183,-7,211,-2076,0,0,0,14701.945,-312.468,-757.445,-7184.490
11.602172,2,197,-2047,-1,-1,0,14701.883,-312.312,-757.640,-7184.602
11.622161,-21,211,-2085,1,0,-1,14701.870,-312.280,-757.470,-7184.648
11.642150,-3,198,-2098,-1,-1,0,14701.805,-312.381,-757.439,-7184.779
11.662139,-18,218,-2109,0,0,-1,14701.747,-312.198,-757.569,-7184.892,575,-260,-262
11.682128,-15,203,-2084,-1,1,-2,14701.593,-312.205,-757.545,-7185.211
11.702117,-10,199,-2088,-2,-2,-1,14701.545,-312.117,-757.383,-7185.331
11.722106,20,189,-2085,0,0,-2,14701.526,-312.138,-757.265,-7185.379
11.742095,-2,188,-2079,0,-1,0,14701.461,-312.303,-756.980,-7185.535
11.762084,0,330,-2058,-2,-1,-1,14704.159,-312.283,-757.247,-7179.985,567,-245,-262
11.782074,84,293,-2113,-3,12,138,14743.819,-309.158,-760.150,-7098.016
11.802063,-370,139,-1959,-1,45,544,14812.058,-304.231,-764.369,-6954.247
11.822052,12,78,-1840,-2,99,1106,14854.478,-318.117,-750.504,-6864.071
11.842041,1065,342,-2182,114,-388,299,14847.762,-311.504,-755.927,-6878.294
11.862030,-101,264,-2334,-109,350,-255,14845.200,-300.273,-764.992,-6883.320,581,-259,-263
11.882019,20,216,-2036,0,0,39,14850.327,-311.588,-754.960,-6872.857
11.902008,36,198,-1867,2,0,59,14852.308,-299.442,-765.416,-6867.958
11.921997,-17,217,-2111,-9,30,-2,14852.277,-299.207,-765.530,-6868.023
11.941986,-1,238,-2096,-1,-1,-2,14852.207,-299.183,-765.481,-6868.181
11.962036,-14,213,-2066,0,0,-2,14852.173,-299.126,-765.411,-6868.265,580,-262,-272
11.981964,26,173,-1979,0,-1,0,14852.400,-304.642,-760.521,-6868.076
12.001953,-33,243,-2081,8,-32,2,14852.152,-299.562,-765.186,-6868.316
12.021942,-11,203,-2069,-1,-1,-1,14852.157,-299.713,-765.292,-6868.288
12.041931,-4,203,-2097,-1,-1,1,14852.150,-299.694,-765.424,-6868.288,580,-262,-272,35222
12.061920,-58,216,-2113,-3,-1,-2,14852.115,-299.467,-765.538,-6868.360,572,-250,-260
12.081909,-9,218,-2054,-2,-1,-1,14852.132,-301.063,-764.274,-6868.396
12.101867,-6,210,-2082,9,-39,1,14852.203,-304.673,-761.072,-6868.438
12.121887,-24,211,-2083,1,-4,-1,14851.872,-300.716,-764.678,-6868.927
12.141876,-6,223,-2086,-13,36,-6,14851.723,-299.430,-765.686,-6869.194
12.161865,-21,194,-2082,-1,0,-1,14851.663,-299.411,-765.760,-6869.316,572,-250,-281
12.181854,-11,222,-2063,-1,-1,-3,14851.556,-299.305,-765.742,-6869.553
12.201812,-2,231,-2105,-3,-2,-2,14851.484,-299.207,-765.738,-6869.714
12.221832,-27,219,-2078,0,0,-1,14851.392,-299.170,-765.762,-6869.912
12.241790,54,202,-2056,-1,-1,-1,14851.360,-299.192,-765.999,-6869.953
12.261810,-61,191,-2031,-1,0,-2,14851.195,-299.656,-765.732,-6870.320,573,-263,-275
12.281768,-784,-259,-2122,0,0,-4,14849.908,-299.411,-765.803,-6873.105
12.301757,-993,-33,-1574,-6,-7,-66,14727.573,-302.183,-758.850,-7132.100
12.321746,501,360,-1427,13,-237,-2651,14458.162,-320.183,-744.713,-7664.195
12.341735,65,421,-2194,15,-279,-3158,14269.585,-335.018,-735.396,-8010.077
12.361755,441,230,-2083,3,-151,-1820,14166.697,-344.643,-730.039,-8190.751,560,-248,-272
12.381744,85,147,-1980,2,-49,-597,14163.384,-346.191,-729.597,-8196.452
12.401733,23,235,-2055,-2,-1,5,14172.995,-346.836,-729.491,-8179.804
12.421722,108,232,-2072,-1,10,182,14194.417,-346.146,-730.557,-8142.508
12.441680,-27,172,-2146,-1,27,295,14231.952,-344.323,-732.281,-8076.644
12.461669,353,234,-2009,-2,41,518,14284.204,-342.548,-733.837,-7983.802,576,-242,-259
12.481658,-103,210,-1551,2,61,693,14364.853,-337.894,-737.655,-7837.610
12.501678,-274,121,-2164,-16,136,1024,14436.675,-330.762,-742.190,-7704.389
12.521636,-26,288,-2034,1,61,695,14476.657,-327.554,-744.799,-7628.880
12.541626,63,269,-2099,-4,29,386,14515.548,-324.805,-747.466,-7554.475,576,-242,-259,35206
12.561645,-132,222,-2158,-3,56,582,14585.320,-320.482,-751.294,-7418.674,575,-240,-258
12.581604,-67,217,-2207,1,92,1011,14663.955,-314.621,-755.171,-7261.858
12.601623,-113,225,-2076,2,82,1012,14744.907,-308.685,-759.730,-7095.821
12.621582,26,192,-2166,-7,88,1033,14816.647,-301.958,-763.292,-6944.683
12.641571,-35,254,-2251,-1,82,885,14880.981,-297.602,-766.295,-6805.591
12.661590,-132,189,-2280,-3,83,958,14964.338,-290.377,-771.141,-6620.048,587,-245,-246
12.681549,-120,162,-2166,3,140,1311,15048.116,-261.756,-778.050,-6427.734
12.701538,-63,230,-2025,40,229,991,15093.944,-231.720,-783.302,-6319.891
12.721527,-25,242,-2111,29,149,478,15112.723,-228.447,-784.653,-6274.804
12.741516,-33,190,-2137,-26,-75,151,15113.968,-235.127,-783.822,-6271.663
12.761505,-4,207,-2121,-5,-21,2,15114.162,-258.276,-781.018,-6270.632,583,-263,-256
12.781524,-28,198,-2115,-49,-175,15,15114.331,-269.887,-779.756,-6269.895
12.801483,-5,233,-2078,7,25,-1,15114.290,-268.591,-779.678,-6270.060
12.821472,-10,187,-2148,-1,-5,0,15114.407,-274.228,-778.827,-6269.638
12.841461,-39,193,-2145,-24,-81,14,15119.347,-277.209,-778.807,-6257.587
12.861450,66,190,-2100,-3,16,192,15145.847,-273.033,-780.206,-6193.181,569,-271,-242
12.881439,-256,189,-2035,8,88,537,15189.268,-229.882,-786.329,-6086.906
12.901428,135,189,-2004,76,325,548,15193.167,-213.066,-788.826,-6077.455
12.921417,4,182,-1958,8,31,-70,15193.292,-222.020,-787.373,-6077.010
12.941406,-60,186,-2004,-23,-87,24,15195.051,-261.143,-782.997,-6071.620
12.961395,-20,205,-2082,-12,-35,3,15194.986,-261.144,-782.859,-6071.800,567,-267,-262
12.981384,-23,230,-2146,7,16,-4,15194.939,-260.586,-782.824,-6071.947
13.001373,-14,203,-2081,2,4,-1,15194.965,-259.062,-782.878,-6071.941
13.021362,-17,192,-2073,2,6,-1,15194.996,-259.244,-782.671,-6071.882
13.041351,-37,194,-2093,-1,-5,2,15194.981,-260.160,-782.658,-6071.882,567,-267,-262,35220
13.061340,-22,199,-2088,-4,-8,-2,15195.009,-260.695,-782.579,-6071.799,573,-271,-254
13.081329,-25,203,-2091,-4,-2,1,15195.031,-260.558,-782.866,-6071.712
13.101348,-22,205,-2117,0,2,-1,15195.062,-260.072,-782.832,-6071.661
13.121307,-13,194,-2100,1,0,0,15195.059,-260.005,-782.866,-6071.668
13.141296,-29,223,-2120,-1,-2,-2,15195.079,-260.621,-782.562,-6071.629
13.161285,-28,214,-2095,-1,-7,2,15195.167,-261.107,-782.331,-6071.418,571,-268,-247
13.181335,-13,212,-2091,-3,-4,1,15195.216,-261.470,-782.300,-6071.283
13.201263,-1,195,-2096,0,-1,1,15195.252,-261.351,-782.268,-6071.203
13.221252,-10,189,-2103,-1,-1,2,15195.294,-261.563,-782.230,-6071.095
13.241241,-18,220,-2109,0,-2,0,15195.291,-261.776,-782.022,-6071.119
13.261230,-17,203,-2098,-1,-3,-1,15195.283,-261.893,-782.026,-6071.133,558,-274,-248
13.281219,-5,199,-2104,-3,-2,0,15195.252,-262.334,-781.940,-6071.203
13.301208,-9,203,-2115,-2,-3,-2,15195.292,-262.711,-781.781,-6071.107
13.321197,-7,222,-2086,-3,-4,0,15195.294,-263.256,-781.672,-6071.092
13.341186,-21,191,-2099,-2,-2,-1,15195.262,-263.723,-781.572,-6071.166
13.361236,-18,209,-2086,-2,-4,1,15195.275,-264.273,-781.530,-6071.114,572,-270,-255
13.381164,-8,190,-2083,-2,-3,1,15195.355,-264.408,-781.366,-6070.929
13.401153,-30,204,-2108,0,0,1,15195.409,-264.324,-781.329,-6070.803
13.421112,-33,216,-2090,0,2,1,15195.430,-264.157,-781.266,-6070.765
13.441131,1,208,-2076,1,0,0,15195.500,-264.277,-781.348,-6070.573
13.461090,-5,196,-2083,-2,-1,2,15195.632,-264.777,-781.332,-6070.224,570,-277,-253
13.481109,-25,196,-2095,-2,-2,3,15195.623,-264.963,-781.304,-6070.243
13.501068,-23,194,-2076,-2,-1,1,15195.717,-264.802,-781.415,-6069.999
13.521087,-18,219,-2070,-1,-1,0,15195.796,-265.079,-781.197,-6069.818
13.541076,-18,207,-2115,-1,-4,1,15195.884,-265.461,-781.008,-6069.605,570,-277,-253,35200
13.561065,-16,208,-2112,-1,-5,1,15195.916,-265.659,-780.772,-6069.546,570,-279,-251
13.581054,-24,215,-2098,-1,-2,0,15195.898,-265.817,-780.670,-6069.597
13.601043,-21,212,-2083,0,0,-1,15195.930,-265.717,-780.643,-6069.524
13.621032,-4,209,-2095,-1,-2,1,15195.965,-265.548,-780.697,-6069.438
13.641021,-10,215,-2109,0,0,1,15195.977,-265.713,-780.631,-6069.409
13.661010,-8,210,-2092,-2,-1,-1,15196.035,-265.802,-780.680,-6069.254,553,-272,-248
13.680999,-27,203,-2098,-2,-2,1,15196.112,-265.919,-780.577,-6069.069
13.700988,-27,217,-2071,-2,-2,0,15196.176,-265.822,-780.557,-6068.915
13.720977,-5,213,-2093,0,0,1,15196.239,-265.857,-780.515,-6068.763
13.740966,-16,215,-2111,-1,-1,-1,15196.188,-266.022,-780.387,-6068.899
13.760955,-10,203,-2098,-1,-2,-1,15196.161,-265.892,-780.321,-6068.981,581,-280,-256
13.780914,0,205,-2095,0,1,-1,15196.248,-265.839,-780.137,-6068.788
13.800933,-28,213,-2106,-1,-2,2,15196.327,-265.848,-780.160,-6068.588
13.820892,4,213,-2100,0,0,1,15196.370,-265.785,-780.244,-6068.473
13.840911,-13,206,-2084,0,0,1,15196.325,-265.767,-780.085,-6068.606
13.860900,-10,199,-2079,0,0,0,15196.326,-265.702,-780.031,-6068.612,576,-273,-261
13.880889,-9,202,-2076,-2,-1,-1,15196.310,-265.645,-780.007,-6068.658
13.900878,-15,217,-2094,-1,-2,0,15196.352,-265.604,-779.803,-6068.582
13.920837,-14,215,-2058,1,0,-1,15196.338,-265.619,-779.682,-6068.632
13.940856,-8,210,-2093,0,-1,1,15196.321,-265.688,-779.584,-6068.684
13.960815,-10,216,-2115,0,0,0,15196.339,-265.676,-779.420,-6068.659,575,-272,-246
13.980834,-18,194,-2096,-1,-3,0,15196.354,-265.762,-779.330,-6068.630
14.000793,-16,225,-2099,-1,-2,-1,15196.438,-265.766,-779.195,-6068.438
14.020813,-27,212,-2082,-1,-2,1,15196.524,-265.849,-779.339,-6068.199
14.040802,-15,221,-2104,-3,-1,1,15196.508,-265.736,-779.310,-6068.248,575,-272,-246,35216
14.060760,1,217,-2104,0,0,0,15196.496,-265.907,-779.444,-6068.255,572,-277,-244
14.080749,-4,214,-2084,0,-1,-1,15196.507,-266.313,-779.189,-6068.242
14.100769,-20,222,-2084,0,-2,0,15196.550,-266.481,-779.157,-6068.131
14.120758,-21,215,-2097,-1,-1,0,15196.581,-266.432,-779.152,-6068.055
14.140716,-6,204,-2081,-1,-1,0,15196.645,-266.408,-779.096,-6067.902
14.160736,-1,206,-2096,-1,-1,0,15196.662,-266.268,-779.186,-6067.855,570,-279,-248
14.180694,-28,197,-2075,1,0,1,15196.759,-266.571,-779.357,-6067.577
14.200683,-23,199,-2085,-2,-3,2,15196.734,-266.663,-779.383,-6067.632
14.220672,-13,223,-2085,-2,-3,0,15196.768,-266.778,-779.588,-6067.517
14.240661,-8,208,-2105,-2,-3,1,15196.755,-266.824,-779.402,-6067.570
14.260650,-31,222,-2093,1,-1,-1,15196.732,-266.704,-779.270,-6067.651,573,-276,-254
14.280639,-7,198,-2078,-1,0,-1,15196.715,-266.700,-779.174,-6067.706
14.300628,-27,225,-2095,-1,-3,0,15196.691,-266.923,-779.141,-6067.759
14.320617,-10,200,-2075,1,-2,-2,15196.675,-266.929,-779.089,-6067.805
14.340606,-10,207,-2099,-1,-3,0,15196.683,-266.785,-778.917,-6067.815
14.360687,-16,213,-2119,-1,-2,-1,15196.699,-266.862,-778.797,-6067.786,569,-278,-259
14.380615,3,204,-2093,0,-1,1,15196.742,-266.647,-778.601,-6067.714
14.400665,-9,198,-2118,0,0,-1,15196.709,-266.637,-778.601,-6067.798
14.420562,-47,203,-2086,-1,-1,0,15196.695,-266.766,-778.749,-6067.807
14.440582,-30,210,-2104,-2,-3,0,15196.724,-266.359,-778.657,-6067.764
14.460540,1,204,-2085,1,1,2,15196.771,-266.254,-778.709,-6067.643,580,-277,-253
14.480529,0,213,-2066,-2,-1,0,15196.755,-266.309,-778.638,-6067.692
14.500518,-15,217,-2078,-1,-1,-3,15196.745,-266.137,-778.581,-6067.731
14.520507,-28,203,-2090,-1,-1,-1,15196.821,-265.862,-778.419,-6067.573
14.540496,2,185,-2106,0,0,1,15196.927,-265.948,-778.466,-6067.298,580,-277,-253,35195
14.560485,-15,205,-2099,-3,-2,0,15196.931,-266.335,-778.407,-6067.278,572,-277,-253
14.580474,-28,205,-2087,-2,-4,1,15196.947,-266.362,-778.302,-6067.251
14.600463,-13,197,-2082,2,0,-2,15196.872,-266.232,-778.167,-6067.462
14.620452,-21,210,-2095,-1,0,-1,15196.914,-265.941,-778.061,-6067.382
14.640441,-9,220,-2095,1,0,0,15196.873,-266.104,-778.123,-6067.470
14.660430,-21,206,-2094,0,0,-3,15196.820,-266.153,-778.111,-6067.603,571,-276,-249
14.680419,-22,217,-2099,0,0,0,15196.879,-266.219,-778.128,-6067.449
14.700408,-20,206,-2062,-1,-2,1,15196.902,-266.354,-778.202,-6067.377
14.720397,-16,207,-2083,0,0,0,15196.899,-266.331,-778.242,-6067.381
14.740386,-5,202,-2084,-2,-1,-1,15196.943,-266.302,-778.294,-6067.264
14.760376,-10,221,-2084,0,-1,1,15197.036,-266.249,-778.384,-6067.023,565,-277,-251
14.780365,-28,224,-2074,-1,-1,0,15197.067,-266.121,-778.511,-6066.935
14.800384,-20,215,-2091,-1,-1,0,15197.061,-266.079,-778.627,-6066.936
14.820343,-5,206,-2096,-1,-1,-1,15197.100,-265.899,-778.532,-6066.858
14.840332,-13,198,-2086,1,0,-1,15197.100,-265.827,-778.543,-6066.860
14.860321,-20,212,-2079,-3,-2,0,15197.066,-265.689,-778.555,-6066.951,575,-274,-251
14.880310,-19,215,-2109,-1,-2,-1,15197.048,-265.670,-778.566,-6066.995
14.900299,-33,202,-2068,0,0,-2,15197.075,-265.696,-778.618,-6066.920
14.920288,-24,209,-2094,-1,-2,-1,15197.077,-265.565,-778.575,-6066.925
14.940277,1,204,-2108,-1,-1,-1,15197.067,-265.355,-778.550,-6066.961
14.960266,-25,194,-2091,1,1,0,15197.074,-265.426,-778.321,-6066.973,564,-271,-261
14.980255,-27,213,-2106,2,0,0,15197.165,-265.289,-778.083,-6066.780
15.000244,-11,204,-2113,1,1,1,15197.188,-265.395,-778.208,-6066.701
15.020233,-25,212,-2103,-1,-2,0,15197.120,-265.370,-778.264,-6066.866
15.040222,-19,207,-2059,-2,-1,0,15197.120,-265.360,-778.140,-6066.881,564,-271,-261,35210
15.060211,2,212,-2095,-1,-2,0,15197.095,-265.231,-777.982,-6066.971,572,-279,-253
15.080200,-15,198,-2099,1,1,-2,15197.060,-265.295,-777.924,-6067.064
15.100189,-31,216,-2096,-1,-3,-1,15197.054,-265.435,-777.920,-6067.072
15.120178,-4,191,-2107,-2,-2,0,15197.109,-265.487,-778.058,-6066.915
15.140167,-20,207,-2037,-1,-1,0,15197.110,-265.617,-777.862,-6066.932
15.160156,-19,206,-2093,-2,-2,0,15197.176,-265.730,-777.697,-6066.783,567,-270,-248
15.180114,-13,197,-2072,1,0,0,15197.162,-265.605,-777.647,-6066.829
15.200103,-3,200,-2095,-2,-3,0,15197.076,-265.635,-777.706,-6067.036
15.220123,-13,207,-2085,-2,-1,-2,15197.146,-265.637,-777.552,-6066.881
15.240112,-17,200,-2112,0,0,0,15197.237,-265.683,-777.675,-6066.636
15.260101,-33,196,-2079,-1,0,0,15197.172,-265.641,-777.645,-6066.802,571,-280,-247
15.280090,-14,200,-2085,1,0,-2,15197.178,-265.650,-777.398,-6066.820
15.300048,-27,199,-2084,0,-1,-1,15197.190,-265.598,-777.448,-6066.785
15.320037,8,211,-2085,-1,-1,0,15197.214,-265.481,-777.634,-6066.705
15.340026,-3,214,-2093,-1,-1,1,15197.249,-265.520,-777.508,-6066.633
15.360076,-27,227,-2098,-1,-2,0,15197.227,-265.539,-777.204,-6066.727,565,-270,-246
15.380035,12,215,-2067,1,0,0,15197.245,-265.353,-777.219,-6066.686
15.399993,9,199,-2091,-2,-1,-1,15197.259,-265.466,-777.183,-6066.651
15.420013,-10,205,-2093,1,0,0,15197.294,-265.454,-777.153,-6066.570
15.439971,-14,207,-2095,0,1,0,15197.276,-265.233,-777.271,-6066.608
15.459991,-10,206,-2088,0,0,-1,15197.324,-265.275,-777.199,-6066.495,564,-268,-261
15.479980,-10,210,-2073,-2,-2,1,15197.388,-265.161,-777.254,-6066.334
15.499938,-9,228,-2098,0,1,1,15197.352,-265.123,-777.330,-6066.416
15.519958,-26,208,-2099,-2,-1,-1,15197.347,-265.073,-777.461,-6066.413
15.539917,-19,216,-2100,-1,-1,0,15197.330,-265.022,-777.459,-6066.458,564,-268,-261,35216
15.559906,2,212,-2093,-2,-3,-1,15197.343,-264.852,-777.585,-6066.417,569,-266,-254
15.579895,-10,205,-2098,-2,-2,1,15197.344,-264.838,-777.514,-6066.425
15.599884,-13,211,-2084,1,0,2,15197.342,-264.905,-777.474,-6066.432
15.619934,-4,205,-2080,1,0,0,15197.389,-264.819,-777.491,-6066.314
15.639862,-6,219,-2063,1,0,1,15197.416,-264.643,-777.324,-6066.276
15.659851,-27,212,-2073,0,0,-1,15197.482,-264.685,-777.235,-6066.120,572,-274,-251
15.679840,-22,215,-2079,-1,-1,0,15197.418,-264.687,-777.097,-6066.300
15.699829,-4,208,-2115,0,-1,-1,15197.497,-264.680,-777.059,-6066.105
15.719818,-21,231,-2083,-2,-2,2,15197.508,-264.840,-776.995,-6066.080
15.739807,-3,200,-2095,-1,-1,-1,15197.487,-264.932,-776.985,-6066.130
15.759796,-8,203,-2107,-1,-2,1,15197.510,-264.904,-776.759,-6066.102,578,-276,-256
15.779785,-27,207,-2091,0,-2,-1,15197.557,-265.084,-776.626,-6065.995
15.799774,-22,219,-2071,-1,-2,0,15197.576,-265.090,-776.441,-6065.968
15.819763,-1,206,-2088,-1,-1,-2,15197.663,-264.994,-776.269,-6065.778
15.839782,-18,202,-2087,0,0,1,15197.716,-264.908,-776.191,-6065.659
15.859771,-16,200,-2104,-1,-1,0,15197.732,-264.833,-776.157,-6065.626,565,-282,-248
15.879730,-16,219,-2096,0,1,0,15197.749,-264.784,-776.177,-6065.582
15.899719,-11,205,-2076,0,1,-1,15197.639,-264.750,-776.102,-6065.869
15.919708,-20,217,-2082,0,0,-3,15197.655,-264.742,-776.090,-6065.832
15.939697,-18,224,-2100,0,0,-1,15197.656,-264.795,-775.928,-6065.848
15.959686,-2,213,-2107,-1,-2,-1,15197.701,-264.883,-775.916,-6065.733,569,-268,-247
15.979675,-30,209,-2100,0,0,1,15197.744,-264.893,-775.987,-6065.614
15.999664,2,200,-2056,2,1,-1,15197.731,-264.723,-775.961,-6065.657
16.019653,-11,228,-2079,0,0,0,15197.745,-264.665,-776.042,-6065.615
16.039642,2,215,-2078,-1,-1,0,15197.793,-264.782,-775.914,-6065.506,569,-268,-247,35230
16.059631,-17,210,-2091,0,-2,0,15197.817,-264.744,-775.741,-6065.470,569,-268,-249
16.079620,-14,210,-2096,-1,-1,0,15197.783,-264.769,-775.658,-6065.565
16.099609,-37,196,-2091,-1,-2,-1,15197.803,-264.714,-775.501,-6065.538
16.119598,-25,214,-2083,1,0,-1,15197.831,-264.679,-775.492,-6065.470
16.139587,1,214,-2075,0,0,-1,15197.852,-264.779,-775.637,-6065.395
16.159576,-18,214,-2111,-1,-1,-1,15197.917,-264.762,-775.561,-6065.241,567,-277,-253
16.179595,-15,212,-2079,-1,-1,0,15198.034,-264.665,-775.493,-6064.962
16.199554,-8,189,-2041,-1,-1,1,15198.105,-264.511,-775.411,-6064.802
16.219543,-17,220,-2078,-1,-1,1,15198.141,-264.438,-775.307,-6064.727
16.239532,-19,194,-2086,1,0,-1,15198.185,-264.278,-775.048,-6064.657
16.259521,-18,207,-2086,1,1,1,15198.189,-264.165,-774.917,-6064.669,565,-286,-253
16.279510,-23,196,-2090,0,0,-1,15198.254,-264.243,-774.760,-6064.522
16.299499,10,204,-2073,0,0,-1,15198.239,-264.061,-774.810,-6064.562
16.319488,-35,196,-2098,0,0,-2,15198.332,-264.135,-774.885,-6064.315
16.339477,-18,210,-2109,-1,-1,-1,15198.329,-264.200,-774.843,-6064.326
16.359527,-15,212,-2094,-1,-1,1,15198.419,-264.082,-774.667,-6064.129,564,-271,-249
16.379455,1,204,-2078,2,1,1,15198.404,-264.220,-774.849,-6064.137
16.399444,-24,218,-2109,0,0,0,15198.439,-264.185,-774.762,-6064.061
16.419433,-22,211,-2102,-2,-1,0,15198.446,-264.397,-774.766,-6064.033
16.439422,-7,216,-2100,-2,-2,-1,15198.436,-264.316,-774.605,-6064.084
16.459411,-13,220,-2054,-1,-1,-1,15198.430,-264.386,-774.669,-6064.088,561,-280,-256
16.479400,-5,217,-2108,-2,-2,-1,15198.466,-264.425,-774.480,-6064.019
16.499389,-1,191,-2090,-1,-3,-1,15198.491,-264.381,-774.656,-6063.936
16.519378,-14,198,-2111,-1,-1,0,15198.440,-264.305,-774.748,-6064.056
16.539367,-6,217,-2095,-2,0,-2,15198.471,-264.031,-774.515,-6064.019
16.559356,-2,210,-2088,1,0,0,15198.483,-264.126,-774.482,-6063.989,564,-278,-256,35226
16.579345,1,209,-2088,1,0,0,15198.466,-264.246,-774.356,-6064.042
16.599334,-11,221,-2090,-1,-4,-2,15198.494,-264.287,-774.393,-6063.966
16.619323,-13,196,-2080,0,0,0,15198.490,-264.349,-774.355,-6063.978
16.639312,-22,204,-2084,0,0,0,15198.510,-264.307,-774.221,-6063.946
16.659301,-10,214,-2097,-1,-1,0,15198.529,-264.199,-774.146,-6063.914,578,-276,-254
16.679290,4,203,-2085,-1,-2,-1,15198.509,-264.226,-774.201,-6063.956
16.699279,-14,206,-2068,1,0,-1,15198.535,-264.153,-774.051,-6063.913
16.719268,-2,229,-2080,-1,-1,1,15198.599,-264.121,-774.002,-6063.760
16.739257,-32,200,-2109,0,0,0,15198.612,-264.178,-773.987,-6063.727
16.759246,-3,205,-2082,-1,-2,-1,15198.599,-264.008,-773.922,-6063.775,566,-278,-245
16.779235,-10,197,-2079,0,0,0,15198.617,-264.037,-773.830,-6063.739
16.799224,-4,209,-2091,0,0,0,15198.642,-263.856,-773.673,-6063.706
16.819213,-21,208,-2097,1,0,0,15198.646,-263.811,-773.573,-6063.711
16.839263,-11,216,-2099,-1,-3,1,15198.612,-263.687,-773.603,-6063.796
16.859161,-14,207,-2096,0,0,-2,15198.653,-263.724,-773.317,-6063.728,565,-279,-258
16.879180,-9,196,-2100,2,0,1,15198.659,-263.681,-773.189,-6063.733
16.899169,-8,199,-2112,0,0,-1,15198.645,-263.601,-773.177,-6063.772
16.919158,-16,209,-2125,-1,-1,-1,15198.648,-263.524,-773.103,-6063.778
16.939147,-25,209,-2092,0,0,0,15198.624,-263.549,-772.825,-6063.872
16.959136,-14,199,-2070,0,-1,0,15198.612,-263.251,-772.860,-6063.910,564,-280,-247
16.979095,-29,217,-2084,1,2,0,15198.609,-263.251,-772.844,-6063.921
16.999115,-8,200,-2094,-1,-2,0,15198.725,-263.250,-772.689,-6063.648
17.019104,-1,227,-2060,-1,-1,2,15198.686,-263.045,-772.541,-6063.774
17.039062,-8,202,-2096,1,1,-1,15198.630,-263.014,-772.389,-6063.935
17.059082,-16,199,-2092,1,0,-2,15198.586,-262.954,-772.316,-6064.058,571,-276,-245,35210
17.079040,-1,196,-2086,0,1,0,15198.605,-262.814,-772.264,-6064.023
17.099029,-19,198,-2072,-1,-1,0,15198.656,-262.761,-772.198,-6063.907
17.119018,-2,193,-2092,0,1,0,15198.673,-262.643,-772.184,-6063.871
17.139007,-1,207,-2115,0,0,0,15198.725,-262.699,-771.997,-6063.762
17.159027,-17,213,-2069,-1,-1,1,15198.752,-262.820,-771.990,-6063.690,567,-279,-255
17.179016,-2,222,-2083,-2,-1,1,15198.719,-262.677,-772.063,-6063.768
17.198974,-14,224,-2115,-2,-1,-2,15198.693,-262.892,-772.090,-6063.821
17.218994,2,207,-2069,-1,-1,-2,15198.755,-262.761,-772.213,-6063.657
17.238983,2,211,-2094,0,0,1,15198.807,-262.575,-772.236,-6063.531
17.258972,-18,211,-2116,0,0,0,15198.840,-262.782,-772.047,-6063.463,578,-273,-249
17.278961,-31,217,-2113,-2,-3,2,15198.815,-262.852,-772.173,-6063.507
17.298919,-2,208,-2066,-3,-1,-1,15198.750,-262.825,-772.100,-6063.680
17.318908,-26,216,-2091,-1,-1,-1,15198.815,-262.841,-772.029,-6063.525
17.338897,0,212,-2090,0,1,1,15198.845,-262.796,-772.093,-6063.445
17.358886,-1,216,-2115,1,0,1,15198.861,-262.836,-772.061,-6063.405,572,-279,-255
17.378875,-2,217,-2092,1,0,-1,15198.848,-262.800,-771.966,-6063.454
17.398895,-34,214,-2104,0,0,0,15198.845,-262.779,-771.967,-6063.462
17.418853,-22,207,-2097,1,2,-2,15198.827,-262.814,-771.880,-6063.515
17.438842,-1,203,-2108,-2,-2,-1,15198.808,-262.849,-771.857,-6063.564
17.458831,3,200,-2081,-1,-1,0,15198.729,-262.726,-771.828,-6063.771,565,-284,-244
17.478820,2,204,-2070,-2,-1,-1,15198.766,-262.648,-771.752,-6063.692
17.498809,-14,216,-2086,0,0,-2,15198.695,-262.683,-771.858,-6063.855
17.518798,-10,199,-2106,0,0,-1,15198.746,-262.811,-771.666,-6063.746
17.538787,-15,224,-2070,-1,-2,-1,15198.737,-262.833,-771.851,-6063.744
17.558776,-18,205,-2082,-3,-1,0,15198.739,-262.696,-771.848,-6063.745,559,-278,-249,35205
17.578765,-11,214,-2078,2,0,1,15198.786,-262.734,-771.769,-6063.637
17.598754,-7,216,-2084,0,0,0,15198.800,-262.653,-771.820,-6063.599
17.618743,-9,208,-2075,0,0,0,15198.774,-262.593,-771.667,-6063.685
17.638732,3,213,-2079,2,0,0,15198.760,-262.514,-771.634,-6063.728
17.658721,2,215,-2083,1,0,-1,15198.792,-262.731,-771.910,-6063.603,564,-276,-249
17.678710,14,210,-2068,-1,-1,0,15198.874,-262.772,-771.824,-6063.406
17.698699,10,195,-2074,-1,-2,-1,15198.928,-262.614,-771.819,-6063.279
17.718688,-21,206,-2079,-1,-1,0,15199.015,-262.672,-771.573,-6063.089
17.738678,-22,206,-2067,1,-1,0,15198.970,-262.569,-771.521,-6063.214
17.758667,-5,198,-2091,0,0,0,15199.013,-262.340,-771.747,-6063.086,561,-276,-247
17.778656,4,220,-2112,-1,0,1,15198.963,-262.273,-771.759,-6063.213
17.798645,-7,210,-2076,-1,-1,-1,15198.996,-262.167,-771.820,-6063.128
17.818634,-17,214,-2092,-1,-1,1,15198.999,-262.058,-771.754,-6063.132
17.838623,-11,208,-2085,1,0,-1,15199.012,-262.055,-771.774,-6063.099
17.858612,-23,216,-2103,0,0,-2,15199.072,-262.182,-771.757,-6062.946,567,-272,-246
17.878601,-14,219,-2076,0,1,2,15199.172,-262.176,-771.591,-6062.714
17.898590,-23,216,-2079,-1,-1,0,15199.136,-262.293,-771.535,-6062.808
17.918579,-13,198,-2098,0,-1,-1,15199.047,-262.398,-771.545,-6063.024
17.938568,-27,204,-2084,-1,-1,-3,15199.038,-262.475,-771.648,-6063.031
17.958557,3,214,-2078,0,-1,0,15199.024,-262.287,-771.575,-6063.083,572,-274,-248
17.978546,-19,185,-2086,1,1,0,15199.024,-262.255,-771.550,-6063.087
17.998535,-2,206,-2092,0,0,0,15199.049,-262.099,-771.355,-6063.057
18.018524,-6,199,-2102,-1,-3,2,15199.009,-262.255,-771.407,-6063.145
18.038513,-30,193,-2090,-1,-1,0,15198.934,-262.291,-771.168,-6063.360
18.058563,-18,218,-2093,-1,-2,-2,15198.925,-262.308,-770.912,-6063.414,570,-274,-251,35232
18.078491,-23,208,-2113,-1,-1,-1,15198.976,-262.348,-770.827,-6063.297
18.098480,-14,208,-2110,-3,-2,3,15198.955,-262.393,-770.806,-6063.350
18.118469,-15,204,-2115,-2,-1,-2,15198.856,-262.511,-770.712,-6063.605
18.138458,-15,204,-2095,0,-1,-3,15198.848,-262.367,-770.526,-6063.655
18.158447,-26,222,-2091,1,0,1,15198.861,-262.425,-770.505,-6063.623,570,-274,-251
18.178436,-15,202,-2090,-2,-3,0,15198.886,-262.223,-770.384,-6063.582
18.198425,-9,216,-2094,1,1,0,15198.924,-262.028,-770.347,-6063.502
18.218414,4,214,-2086,1,0,0,15198.944,-262.153,-770.468,-6063.430
18.238403,-14,205,-2081,-2,-2,0,15198.909,-262.265,-770.439,-6063.516
18.258392,-28,200,-2107,-1,-2,-1,15198.967,-262.274,-770.576,-6063.353,575,-272,-244
18.278381,1,206,-2094,0,-1,-1,15198.979,-262.275,-770.603,-6063.319
18.298370,4,192,-2091,-1,-1,0,15199.003,-262.300,-770.715,-6063.244
18.318328,-9,226,-2093,-1,-1,1,15199.012,-262.245,-770.479,-6063.254
18.338348,-25,199,-2108,-1,-1,0,15198.982,-262.403,-770.688,-6063.297
18.359252,-25,213,-2092,-2,-3,-2,15198.969,-262.423,-770.514,-6063.351,567,-272,-258
18.378326,-8,206,-2073,-2,-1,-1,15198.887,-262.236,-770.597,-6063.553
18.398315,-11,216,-2071,2,0,-2,15198.841,-262.260,-770.414,-6063.691
18.418304,-8,208,-2068,0,0,-1,15198.822,-262.276,-770.418,-6063.737
18.438262,-13,211,-2094,-1,-2,1,15198.819,-262.172,-770.512,-6063.737
18.458282,-11,217,-2092,-1,-1,1,15198.850,-262.156,-770.556,-6063.656,566,-266,-245
18.478271,-14,215,-2066,-1,0,1,15198.798,-262.174,-770.564,-6063.783
18.498230,-16,210,-2063,-2,-2,0,15198.846,-262.062,-770.613,-6063.661
18.518249,-13,202,-2071,-1,-1,1,15198.842,-262.269,-770.528,-6063.674
18.538238,-7,205,-2102,-1,-1,0,15198.870,-262.292,-770.555,-6063.599
18.558227,-7,215,-2072,0,0,1,15198.917,-262.291,-770.534,-6063.485,570,-270,-258,35200
18.578216,-22,203,-2096,-1,-2,1,15198.998,-262.246,-770.525,-6063.283
18.598205,1,210,-2111,0,1,1,15199.002,-262.145,-770.431,-6063.291
18.618194,-19,198,-2075,-1,-1,0,15199.005,-262.113,-770.339,-6063.295
18.638183,-18,212,-2083,-1,-3,-1,15198.989,-261.937,-770.399,-6063.335
18.658172,-1,212,-2088,-1,0,-1,15199.051,-261.986,-770.476,-6063.170,564,-283,-245
18.678131,0,218,-2100,-1,-1,1,15199.049,-262.116,-770.396,-6063.178
18.698150,-18,202,-2103,-1,-1,1,15199.073,-262.216,-770.476,-6063.103
18.718109,-26,211,-2075,-1,-1,0,15198.971,-262.117,-770.549,-6063.353
18.738128,-21,204,-2106,0,0,-1,15198.908,-262.084,-770.500,-6063.519
18.758117,-21,200,-2110,0,0,-1,15198.927,-262.005,-770.396,-6063.489,572,-272,-260
18.778076,-13,194,-2094,-3,-3,0,15198.946,-262.221,-770.489,-6063.421
18.798095,-13,212,-2094,-2,-2,0,15198.969,-262.172,-770.325,-6063.386
18.818054,-5,204,-2073,1,-1,0,15198.970,-262.151,-770.256,-6063.394
18.838073,-16,212,-2105,1,0,-2,15198.888,-262.243,-770.205,-6063.601
18.858062,-22,209,-2104,-1,-2,-2,15198.836,-262.172,-770.278,-6063.725,565,-272,-260
18.878021,-20,208,-2081,-1,1,0,15198.824,-262.271,-770.424,-6063.731
18.898040,-23,206,-2112,-1,-1,-2,15198.789,-262.124,-770.522,-6063.813
18.918029,-15,216,-2099,1,0,0,15198.836,-262.040,-770.552,-6063.695
18.937988,-11,196,-2102,0,0,-1,15198.791,-262.255,-770.672,-6063.785
18.957977,-18,214,-2061,-4,-2,0,15198.778,-262.064,-770.631,-6063.829,561,-268,-249
18.977966,-4,212,-2072,-1,-1,-2,15198.752,-261.942,-770.530,-6063.914
18.997985,-22,217,-2112,1,0,0,15198.778,-261.924,-770.646,-6063.833
19.017944,-16,207,-2103,0,0,1,15198.761,-261.896,-770.557,-6063.889
19.037933,-15,194,-2059,0,-1,0,15198.758,-261.890,-770.557,-6063.896
19.057922,4,202,-2111,-3,-2,0,15198.716,-262.025,-770.256,-6064.034,561,-268,-249,35179
19.077911,-27,209,-2091,-2,-2,-1,15198.762,-262.170,-770.233,-6063.916,570,-277,-251
19.097900,-16,190,-2109,-2,-2,1,15198.742,-262.230,-770.158,-6063.973
19.117889,-5,224,-2096,-2,-1,0,15198.731,-262.175,-770.034,-6064.019
19.137878,-11,207,-2091,0,-1,0,15198.731,-262.375,-769.832,-6064.035
19.157867,8,204,-2085,1,-1,1,15198.774,-262.287,-770.035,-6063.905
19.177856,-25,211,-2082,0,2,0,15198.810,-262.221,-769.977,-6063.826,567,-274,-248
19.197845,-13,208,-2068,0,0,1,15198.799,-262.459,-769.997,-6063.842
19.217834,-4,211,-2065,0,-1,-1,15198.791,-262.589,-770.004,-6063.854
19.237823,-10,228,-2094,0,-2,-1,15198.737,-262.761,-769.909,-6063.994
19.257812,-10,202,-2092,-1,-1,-2,15198.751,-262.612,-770.056,-6063.947
19.277862,-21,193,-2061,0,0,0,15198.752,-262.683,-769.955,-6063.955,575,-282,-246
19.297790,-4,205,-2115,1,0,0,15198.765,-262.677,-769.959,-6063.921
19.317779,-13,205,-2068,-1,-1,-1,15198.793,-262.724,-769.961,-6063.849
19.337768,-6,202,-2082,-2,-2,0,15198.818,-262.722,-770.071,-6063.771
19.357757,-26,199,-2048,-3,-1,0,15198.887,-262.701,-769.986,-6063.610
19.377746,-19,210,-2095,0,0,-1,15198.977,-262.896,-769.948,-6063.381,569,-278,-256
19.397735,-24,205,-2057,-2,-1,-1,15198.946,-262.919,-769.822,-6063.475
19.417724,-1,192,-2080,-1,-3,-1,15199.016,-263.073,-769.888,-6063.285
19.437713,-19,199,-2102,-1,-1,1,15199.073,-263.058,-770.041,-6063.123
19.457702,-32,212,-2100,-2,-1,0,15199.114,-263.075,-770.178,-6063.000
19.477691,1,200,-2086,-1,-1,-1,15199.167,-262.968,-770.068,-6062.887,567,-272,-248
19.497680,-10,200,-2094,2,0,1,15199.208,-263.065,-770.167,-6062.768
19.517669,-21,224,-2075,-2,-2,-1,15199.220,-263.169,-770.164,-6062.733
19.537658,-5,193,-2112,-1,-3,1,15199.295,-263.173,-770.285,-6062.530
19.557647,-24,218,-2100,-2,0,1,15199.376,-263.079,-770.288,-6062.332,567,-272,-248,35210
19.577636,-16,208,-2081,0,0,1,15199.423,-263.097,-770.249,-6062.216,577,-272,-253
19.597625,-3,199,-2079,-2,-1,0,15199.424,-263.096,-770.179,-6062.223
19.617614,-6,220,-2070,-1,-2,-1,15199.446,-263.033,-770.044,-6062.188
19.637603,16,228,-2076,-2,-1,1,15199.457,-263.160,-769.966,-6062.164
19.657592,-9,226,-2088,-1,-2,-1,15199.438,-263.094,-770.068,-6062.203
19.677581,-16,209,-2107,0,0,-2,15199.497,-263.181,-770.095,-6062.048,566,-280,-249
19.697570,-28,211,-2071,0,-1,1,15199.600,-263.226,-770.261,-6061.766
19.717559,-5,218,-2083,-1,-1,1,15199.666,-263.104,-770.243,-6061.609
19.737548,-15,195,-2102,0,-1,0,15199.747,-263.055,-770.199,-6061.412
19.757537,-10,203,-2083,1,0,1,15199.794,-263.096,-770.123,-6061.304
19.777526,-16,210,-2072,2,0,-1,15199.823,-263.180,-770.070,-6061.233,571,-271,-247
19.797485,-4,225,-2094,0,0,-1,15199.854,-263.179,-769.996,-6061.163
19.817504,-18,205,-2096,0,-1,0,15199.896,-263.420,-769.984,-6061.049
19.837493,14,186,-2067,0,0,-1,15199.926,-263.279,-770.097,-6060.966
19.857482,-32,214,-2091,1,1,1,15199.985,-263.238,-770.216,-6060.806
19.877471,-26,219,-2096,0,0,2,15199.939,-263.040,-770.212,-6060.931,563,-274,-253
19.897460,-16,214,-2085,0,0,0,15199.954,-263.401,-770.248,-6060.872
19.917449,-4,203,-2062,-1,-2,0,15199.889,-263.294,-770.270,-6061.037
19.937438,-21,207,-2079,0,1,-2,15199.971,-263.323,-770.186,-6060.840
19.957397,-8,177,-2113,-1,-1,1,15199.972,-263.432,-770.441,-6060.802
19.977417,-18,212,-2074,-2,-1,-1,15199.990,-263.269,-770.492,-6060.756,572,-267,-244
19.997375,5,208,-2085,1,0,1,15200.011,-263.333,-770.621,-6060.683
20.017364,6,213,-2066,-2,-1,0,15200.110,-263.313,-770.567,-6060.445
20.037353,-16,212,-2085,0,-1,1,15200.130,-263.380,-770.414,-6060.412
20.057373,-13,213,-2123,-1,-1,1,15200.141,-263.442,-770.444,-6060.375,572,-267,-244,35210
20.077362,-18,198,-2087,-2,-1,0,15200.166,-263.553,-770.429,-6060.312,564,-266,-252
20.097351,-18,217,-2072,-2,-3,0,15200.227,-263.707,-770.316,-6060.166
20.117340,-32,221,-2090,-2,-2,0,15200.281,-263.828,-770.474,-6060.005
20.137329,-29,207,-2083,-2,-2,-2,15200.246,-263.919,-770.411,-6060.096
20.157318,-2,210,-2074,-2,-3,-2,15200.237,-264.095,-770.389,-6060.115
20.177307,-16,214,-2092,-1,-2,0,15200.317,-264.097,-770.348,-6059.920,570,-274,-239
20.197296,-31,207,-2060,1,-1,1,15200.313,-264.198,-770.299,-6059.929
20.217285,-16,200,-2050,-2,-2,1,15200.323,-264.005,-770.548,-6059.881
20.237243,-3,211,-2099,-2,0,1,15200.367,-264.089,-770.594,-6059.763
20.257232,-15,199,-2087,0,1,0,15200.340,-264.157,-770.759,-6059.807
20.277252,-7,206,-2079,-3,-1,-3,15200.285,-264.108,-770.886,-6059.930,564,-271,-261
20.297210,-19,204,-2079,-3,-1,-2,15200.294,-264.127,-771.006,-6059.892
20.317199,-18,209,-2062,-1,-2,1,15200.429,-264.280,-771.095,-6059.536
20.337188,-21,210,-2079,-2,-2,-1,15200.425,-264.268,-771.134,-6059.539
20.358184,-22,221,-2112,-2,-1,-2,15200.365,-264.368,-771.282,-6059.666
20.377197,-9,213,-2093,-1,-2,-2,15200.391,-264.271,-771.037,-6059.637,565,-279,-246
20.397155,-11,218,-2096,1,0,1,15200.492,-264.081,-771.016,-6059.394
20.417144,-4,200,-2100,-1,-2,0,15200.567,-264.214,-770.982,-6059.205
20.437133,-19,214,-2134,0,-1,0,15200.569,-264.270,-770.839,-6059.217
20.457122,-11,214,-2084,-1,-3,0,15200.632,-264.354,-770.745,-6059.066
20.477111,-18,214,-2072,1,0,1,15200.614,-264.407,-770.735,-6059.110,566,-273,-252
20.497161,-1,193,-2098,-1,-3,0,15200.660,-264.547,-770.641,-6059.001
20.517089,-26,213,-2079,-1,-3,0,15200.682,-264.480,-770.510,-6058.967
20.537109,-23,203,-2083,-1,-1,0,15200.684,-264.452,-770.415,-6058.975
20.557067,-2,218,-2093,0,0,0,15200.732,-264.602,-770.299,-6058.861,566,-273,-252,35236
20.577056,-6,218,-2086,-1,-3,1,15200.779,-264.518,-770.370,-6058.739,572,-284,-246
20.597045,-8,204,-2069,0,1,1,15200.758,-264.551,-770.384,-6058.788
20.617034,-2,203,-2076,-2,-1,0,15200.787,-264.683,-770.268,-6058.724
20.637023,-2,213,-2082,-1,-4,0,15200.800,-264.716,-770.247,-6058.693
20.657012,-21,208,-2079,-1,-1,-1,15200.865,-264.585,-770.295,-6058.528
20.677001,-11,211,-2100,-1,-1,0,15200.931,-264.549,-770.286,-6058.367,570,-284,-248
20.696990,-10,222,-2094,1,1,0,15200.977,-264.617,-770.243,-6058.254
20.716980,-18,196,-2065,-3,-3,1,15201.023,-264.692,-770.233,-6058.136
20.736969,2,206,-2070,0,-1,0,15201.071,-264.526,-770.274,-6058.017
20.756988,-34,200,-2112,-2,-1,0,15201.143,-264.699,-770.330,-6057.822
20.776947,-7,213,-2097,-1,-1,0,15201.134,-264.753,-770.418,-6057.830,560,-277,-246
20.796936,-7,186,-2119,-2,-1,-1,15201.163,-264.722,-770.489,-6057.750
20.816925,-9,193,-2099,-1,-1,-1,15201.190,-264.752,-770.570,-6057.671
20.836914,-17,212,-2100,-1,-2,1,15201.250,-264.752,-770.609,-6057.516
20.856903,-17,221,-2094,-2,-1,1,15201.240,-264.712,-770.436,-6057.565
20.876892,-21,213,-2100,-1,-1,-2,15201.215,-264.946,-770.440,-6057.617,563,-277,-253
20.896881,-24,206,-2084,-1,-1,0,15201.250,-264.810,-770.391,-6057.542
20.916870,-5,210,-2079,0,0,-1,15201.336,-264.715,-770.291,-6057.343
20.936859,-18,208,-2110,0,0,0,15201.378,-264.822,-770.296,-6057.231
20.956848,-18,205,-2100,-1,-1,1,15201.399,-265.067,-770.347,-6057.162
20.976837,-16,214,-2123,-1,-3,1,15201.380,-265.092,-770.323,-6057.212,572,-272,-258
20.996826,-14,190,-2091,-3,-2,0,15201.389,-265.131,-770.433,-6057.172
21.016815,-21,199,-2103,-1,-1,-1,15201.388,-265.143,-770.367,-6057.183
21.036804,-28,211,-2120,0,0,-2,15201.375,-264.982,-770.295,-6057.233
21.056793,-21,203,-2105,1,0,-2,15201.371,-264.971,-770.281,-6057.244,572,-272,-258,35210
21.076782,-9,216,-2103,-1,-1,-1,15201.433,-264.962,-770.275,-6057.090,571,-273,-247
21.096771,-15,196,-2071,-2,-1,2,15201.488,-265.173,-770.315,-6056.937
21.116760,-7,196,-2033,-2,-2,3,15201.536,-265.253,-770.203,-6056.827
21.136749,-18,204,-2111,-1,-1,-1,15201.607,-265.351,-770.320,-6056.632
21.156738,-9,202,-2088,-1,-1,2,15201.620,-265.232,-770.414,-6056.592
21.176727,-1,203,-2128,-2,-1,-1,15201.649,-265.372,-770.303,-6056.527,560,-267,-246
21.196716,-20,204,-2088,0,-1,-1,15201.661,-265.403,-770.333,-6056.492
21.216705,-2,214,-2090,0,0,-1,15201.679,-265.325,-770.298,-6056.454
21.236694,-7,223,-2090,2,1,0,15201.795,-265.365,-770.143,-6056.180
21.256683,-18,211,-2086,0,-2,1,15201.936,-265.449,-770.136,-6055.823
21.276672,-24,218,-2069,0,0,2,15201.996,-265.388,-770.241,-6055.663,564,-278,-242
21.296661,-27,207,-2060,1,-1,1,15202.134,-265.439,-770.313,-6055.304
21.316650,-21,213,-2096,-2,-2,2,15202.113,-265.384,-770.389,-6055.350
21.336639,-1,211,-2083,0,0,-2,15202.001,-265.212,-770.467,-6055.629
21.356628,-22,212,-2084,-2,-2,-1,15201.918,-265.109,-770.545,-6055.832
21.376617,-16,203,-2090,-2,-1,-1,15201.898,-265.089,-770.616,-6055.874,565,-279,-244
21.396606,-23,209,-2096,-2,-2,0,15201.813,-265.222,-770.684,-6056.074
21.416595,4,212,-2072,-1,-1,1,15201.686,-265.141,-770.665,-6056.397
21.436584,-22,211,-2051,-1,-1,-2,15201.557,-265.274,-770.590,-6056.725
21.456573,-11,208,-2079,1,-1,-1,15201.410,-265.223,-770.631,-6057.091
21.476562,-18,207,-2105,-1,-1,-2,15201.365,-265.199,-770.530,-6057.217,566,-273,-252
21.496551,-30,206,-2075,0,-2,0,15201.279,-265.112,-770.696,-6057.416
21.516540,-19,210,-2111,-1,-1,-1,15201.232,-264.966,-770.756,-6057.532
21.536529,-23,200,-2080,0,0,-2,15201.167,-265.024,-770.711,-6057.699
21.556518,-21,194,-2116,0,-2,-1,15201.068,-265.143,-770.616,-6057.955,566,-273,-252,35226
21.576507,-21,220,-2073,-1,-3,-1,15200.985,-265.067,-770.619,-6058.165,567,-274,-251
21.596466,-15,207,-2086,-2,-2,-1,15200.886,-264.974,-770.704,-6058.408
21.616485,-14,204,-2067,0,0,-1,15200.794,-264.697,-770.756,-6058.644
21.636474,-18,204,-2086,2,1,-1,15200.759,-264.315,-770.711,-6058.755
21.656433,-28,192,-2099,1,2,-1,15200.664,-264.291,-770.632,-6059.003
21.676452,-19,210,-2082,-2,-1,-3,15200.522,-264.164,-770.583,-6059.372,570,-267,-253
21.696411,-17,222,-2092,-1,-1,-3,15200.398,-264.124,-770.388,-6059.709
21.716491,-9,209,-2085,-2,-3,-3,15200.315,-264.191,-770.316,-6059.924
21.736419,-36,205,-2078,-3,-2,0,15200.204,-264.020,-770.327,-6060.207
21.756408,-10,195,-2070,1,0,-3,15200.139,-263.805,-770.457,-6060.363
21.776367,12,222,-2096,0,0,-1,15200.048,-263.702,-770.795,-6060.554,563,-267,-262
21.796386,2,213,-2074,-3,-1,-2,15199.911,-263.758,-770.947,-6060.875
21.816345,-23,198,-2079,-1,-3,0,15199.896,-263.831,-770.876,-6060.920
21.836364,-7,217,-2099,-3,-1,-1,15199.834,-263.704,-770.882,-6061.080
21.856353,-2,208,-2113,0,0,-1,15199.843,-263.610,-770.733,-6061.080
21.876342,-17,202,-2081,-1,-1,0,15199.779,-263.539,-770.777,-6061.237,564,-271,-249
21.896331,-14,215,-2109,-1,-1,-1,15199.701,-263.417,-770.794,-6061.437
21.916290,-1,205,-2075,0,-1,-2,15199.573,-263.434,-770.718,-6061.767
21.936309,-17,198,-2080,0,0,-2,15199.505,-263.660,-770.664,-6061.934
21.956268,-18,193,-2086,0,-1,-1,15199.407,-263.659,-770.658,-6062.180
21.976257,-6,216,-2073,-1,-2,-3,15199.361,-263.447,-770.758,-6062.292,566,-276,-252
21.996246,-21,204,-2091,0,1,-2,15199.262,-263.396,-770.907,-6062.525
22.016235,-11,212,-2070,1,0,0,15199.151,-263.166,-770.982,-6062.803
22.036224,-20,208,-2112,-1,-1,-1,15199.121,-263.171,-770.896,-6062.887
22.056213,-6,196,-2096,-2,-1,-1,15199.135,-263.107,-771.002,-6062.842,566,-276,-252,35199
22.076202,-1,219,-2088,0,0,-1,15199.125,-263.173,-770.792,-6062.891,569,-280,-254
22.096221,-4,202,-2107,0,0,0,15199.044,-263.069,-770.924,-6063.082
22.116180,1,218,-2056,1,1,-1,15199.036,-263.068,-771.111,-6063.078
22.136199,4,207,-2079,-2,-1,-1,15198.979,-263.366,-771.108,-6063.209
22.156158,-5,207,-2115,-1,-2,-2,15198.854,-263.259,-771.059,-6063.533
22.176147,-27,197,-2103,0,0,-1,15198.759,-263.235,-771.051,-6063.773,571,-268,-249
22.196136,-16,208,-2084,-2,-2,-1,15198.664,-263.173,-771.039,-6064.014
22.216125,-2,205,-2093,-1,-1,0,15198.570,-263.237,-770.941,-6064.262
22.236114,2,210,-2123,0,0,-2,15198.477,-263.134,-770.918,-6064.501
22.256103,-18,212,-2090,-1,-1,0,15198.401,-263.164,-770.853,-6064.698
22.276092,-10,200,-2080,0,0,0,15198.371,-263.033,-770.879,-6064.777,572,-267,-248
22.296081,-10,212,-2061,-2,-1,0,15198.276,-263.032,-770.806,-6065.023
22.316070,-15,221,-2096,0,0,-1,15198.207,-263.087,-770.903,-6065.182
22.336059,-18,217,-2109,-2,-1,-1,15198.093,-263.080,-770.920,-6065.465
22.356048,-28,221,-2066,-2,-2,-1,15197.954,-262.678,-771.047,-6065.816
22.376037,-20,216,-2071,-3,0,0,15197.765,-262.681,-771.238,-6066.264,569,-278,-249
22.396026,-11,217,-2104,0,1,-2,15197.747,-262.696,-771.316,-6066.299
22.416015,-16,198,-2110,0,0,1,15197.671,-262.551,-771.246,-6066.504
22.436004,-7,220,-2074,-1,-2,0,15197.662,-262.372,-771.167,-6066.545
22.455993,-10,199,-2088,0,0,1,15197.647,-262.305,-771.199,-6066.581
22.475982,-16,203,-2094,-1,-2,-2,15197.564,-262.319,-771.214,-6066.786,569,-273,-259
22.495971,-19,211,-2099,-2,-2,-1,15197.438,-262.187,-771.221,-6067.107
22.515960,-10,218,-2080,-1,-1,-2,15197.357,-262.314,-771.539,-6067.263
22.535949,-30,209,-2087,-2,-3,0,15197.234,-262.272,-771.423,-6067.588
22.555938,-3,230,-2068,0,-1,-2,15197.099,-262.367,-771.449,-6067.919,569,-273,-259,35189
22.575927,2,196,-2097,-1,-2,-3,15197.052,-262.280,-771.497,-6068.036,567,-274,-253
22.595916,-6,211,-2083,0,0,0,15196.858,-262.128,-771.556,-6068.520
22.615905,-9,202,-2088,-1,-1,-2,15196.738,-261.828,-771.587,-6068.829
22.635894,-38,214,-2127,1,1,-2,15196.658,-261.854,-771.515,-6069.038
22.655883,-1,215,-2097,-2,-1,-2,15196.592,-261.753,-771.537,-6069.204
22.675872,-13,215,-2078,-2,-1,-1,15196.599,-261.744,-771.370,-6069.208,581,-278,-252
22.695861,7,206,-2085,-1,-1,0,15196.570,-261.479,-771.515,-6069.274
22.715850,-19,219,-2083,-1,-1,0,15196.527,-261.577,-771.256,-6069.410
22.735839,-10,177,-2098,-1,-3,0,15196.484,-261.663,-771.011,-6069.547
22.755828,-24,209,-2070,-1,-1,-1,15196.400,-261.656,-771.064,-6069.749
22.775817,-21,216,-2080,-1,-1,-3,15196.259,-261.511,-771.004,-6070.115,564,-276,-247
22.795806,-7,218,-2106,-2,-1,-3,15196.236,-261.553,-771.127,-6070.157
22.815795,-4,202,-2113,-2,-2,-2,15196.132,-261.537,-771.251,-6070.401
22.835784,-34,205,-2083,0,0,-3,15196.071,-261.439,-771.244,-6070.559
22.855773,-9,204,-2086,0,0,-1,15195.967,-261.584,-771.237,-6070.814
22.875762,-17,197,-2063,-2,-2,-1,15195.890,-261.557,-771.158,-6071.018,564,-276,-245
22.895751,-22,212,-2090,1,0,-2,15195.791,-261.697,-771.062,-6071.273
22.915740,-14,206,-2132,-1,-3,0,15195.782,-261.523,-770.971,-6071.314
22.935791,-17,207,-2091,0,0,-1,15195.713,-261.575,-771.033,-6071.477
22.955719,-23,213,-2104,-2,-1,0,15195.642,-261.517,-771.180,-6071.638
22.975708,-15,207,-2035,-1,-1,-1,15195.510,-261.473,-771.239,-6071.963,565,-274,-248
22.995697,-19,196,-2097,-2,-1,-2,15195.389,-261.311,-771.108,-6072.290
23.015686,-2,216,-2107,1,0,-2,15195.342,-261.155,-771.133,-6072.410
23.035675,-16,214,-2062,-2,-1,-2,15195.258,-261.253,-771.100,-6072.620
23.055664,-4,213,-2105,-2,-1,0,15195.138,-261.381,-771.161,-6072.908,565,-274,-248,35191
23.075653,-10,206,-2059,2,-3,-1,15194.996,-261.352,-771.081,-6073.273,565,-274,-251
23.095642,-21,204,-2075,0,0,-1,15194.919,-261.297,-771.019,-6073.478
23.115631,-13,209,-2105,-1,-3,-4,15194.851,-261.281,-771.047,-6073.644
23.135620,-21,212,-2065,-1,-1,-1,15194.771,-261.022,-770.844,-6073.882
23.155609,-17,213,-2104,0,0,0,15194.679,-261.174,-770.996,-6074.085
23.175598,3,218,-2075,-2,-1,-2,15194.622,-261.005,-770.949,-6074.242,557,-273,-247
23.195587,-26,202,-2076,0,0,-2,15194.553,-261.192,-770.872,-6074.415
23.215576,-16,198,-2098,-2,-3,-1,15194.421,-261.217,-770.873,-6074.744
23.235565,-14,208,-2084,0,0,-1,15194.344,-261.283,-770.676,-6074.959
23.255554,-25,217,-2113,0,-2,0,15194.254,-261.167,-770.594,-6075.199
23.275543,7,193,-2081,-1,-1,0,15194.222,-261.143,-770.600,-6075.280,567,-274,-241
23.295501,1,203,-2092,0,1,0,15194.195,-261.199,-770.439,-6075.366
23.315521,11,205,-2092,0,-3,-1,15194.118,-261.188,-770.324,-6075.572
23.335479,-15,203,-2086,0,-2,-1,15194.057,-261.032,-770.359,-6075.729
23.355499,-20,208,-2088,1,0,-1,15193.894,-260.877,-770.495,-6076.125
23.375488,-28,207,-2105,0,0,-2,15193.842,-260.735,-770.627,-6076.245,563,-272,-248
23.395446,-10,217,-2075,0,0,-1,15193.744,-260.668,-770.649,-6076.490
23.415466,-7,206,-2107,-2,-1,-1,15193.697,-260.540,-770.743,-6076.601
23.435424,-6,214,-2107,-1,-1,-1,15193.651,-260.604,-770.660,-6076.723
23.455413,-14,205,-2056,-1,-1,1,15193.595,-260.632,-770.882,-6076.835
23.475402,-14,196,-2069,-3,-1,-1,15193.463,-260.628,-770.929,-6077.158,555,-270,-255
23.495422,-32,215,-2081,0,0,-2,15193.414,-260.514,-770.959,-6077.281
23.515380,-9,212,-2072,-2,-1,0,15193.360,-260.498,-771.040,-6077.407
23.535369,-6,196,-2080,-2,-1,0,15193.230,-260.537,-771.060,-6077.728
23.555358,-11,204,-2084,0,0,-2,15193.210,-260.775,-770.925,-6077.785,555,-270,-255,35210
23.575347,-23,200,-2119,-2,-3,0,15193.168,-260.690,-770.833,-6077.907,572,-274,-251
23.595336,-26,217,-2084,-2,-1,0,15193.087,-260.675,-770.794,-6078.113
23.615325,-21,194,-2113,-1,0,-3,15193.017,-260.633,-770.906,-6078.277
23.635314,-29,208,-2096,-2,-1,-2,15193.017,-260.640,-770.847,-6078.285
23.655303,-4,203,-2102,-1,-2,0,15192.910,-260.684,-771.006,-6078.529
23.675292,-14,208,-2093,-2,-1,-1,15192.864,-260.730,-770.925,-6078.652,571,-273,-256
23.695282,-19,231,-2076,-1,-1,-2,15192.831,-260.733,-770.950,-6078.733
23.715301,-26,213,-2088,-2,-3,-1,15192.654,-260.714,-770.902,-6079.181
23.735260,-13,206,-2067,-1,-1,-2,15192.622,-260.796,-770.803,-6079.270
23.755249,-8,205,-2099,0,-1,-2,15192.623,-260.752,-770.776,-6079.272
23.775238,-2,211,-2108,-2,-2,1,15192.548,-260.759,-770.627,-6079.478,566,-283,-254
23.795227,-2,216,-2092,-1,-3,-1,15192.531,-260.781,-770.622,-6079.521
23.815216,-13,215,-2087,-1,-1,-1,15192.411,-260.631,-770.505,-6079.843
23.835205,-8,217,-2069,2,0,-1,15192.304,-260.501,-770.399,-6080.127
23.855194,-17,187,-2109,0,0,-2,15192.274,-260.576,-770.335,-6080.208
23.875183,-19,219,-2109,-1,-1,0,15192.139,-260.557,-770.472,-6080.528,565,-272,-253
23.895172,-23,214,-2110,-2,-1,-2,15192.062,-260.531,-770.375,-6080.735
23.915161,-8,200,-2088,0,0,0,15192.036,-260.230,-770.396,-6080.810
23.935150,-8,218,-2078,0,0,-2,15191.979,-260.321,-770.533,-6080.931
23.955169,-19,219,-2080,-1,-2,-2,15191.913,-260.327,-770.524,-6081.096
23.975128,-4,215,-2096,0,0,-1,15191.879,-260.195,-770.653,-6081.171,569,-278,-254
23.995117,-28,206,-2088,-2,0,0,15191.831,-259.999,-770.689,-6081.294
24.015106,-20,199,-2071,-1,-1,-1,15191.788,-259.850,-770.644,-6081.414
24.035095,-15,212,-2095,1,-1,-1,15191.699,-259.797,-770.867,-6081.611
24.055084,-11,203,-2079,-2,-3,-2,15191.639,-259.707,-770.844,-6081.768,569,-278,-254,35205
24.075073,-3,205,-2109,-1,-1,0,15191.634,-259.715,-770.938,-6081.768,561,-273,-256
24.095062,-4,202,-2090,-2,-1,2,15191.536,-259.837,-770.838,-6082.020
24.115051,-4,207,-2060,-1,-1,-1,15191.452,-259.954,-770.834,-6082.225
24.135040,-6,212,-2065,-2,-1,-2,15191.385,-259.789,-770.959,-6082.382
24.155090,-14,203,-2106,0,0,-1,15191.284,-259.652,-770.750,-6082.667
24.175048,-19,199,-2083,2,0,-3,15191.142,-259.562,-770.720,-6083.030,571,-278,-261
24.195007,-38,218,-2070,-2,-1,-3,15191.087,-259.356,-770.578,-6083.193
24.214996,3,215,-2100,1,-2,0,15191.042,-259.326,-770.429,-6083.327
24.234985,-3,212,-2068,-1,-1,0,15190.969,-259.135,-770.388,-6083.522
24.254974,-17,229,-2095,-1,-1,1,15190.823,-259.141,-770.391,-6083.885
24.274963,-17,213,-2107,-2,-1,-3,15190.768,-259.005,-770.269,-6084.045,567,-277,-258
24.294952,-26,190,-2069,0,1,0,15190.710,-258.869,-770.132,-6084.213
24.314941,-1,215,-2106,-1,-2,-3,15190.641,-258.901,-770.189,-6084.377
24.334930,-20,200,-2086,-1,-1,-1,15190.588,-258.866,-770.346,-6084.492
24.354919,-16,205,-2100,-3,-2,0,15190.572,-258.732,-770.363,-6084.534
24.374908,-4,209,-2098,-1,-2,1,15190.537,-258.633,-770.095,-6084.660,567,-270,-255
24.394897,-25,204,-2097,-1,-1,-1,15190.521,-258.688,-770.055,-6084.702
24.414886,-17,191,-2061,-1,-1,-2,15190.463,-258.485,-770.018,-6084.861
24.434875,-24,211,-2109,-2,-1,-1,15190.309,-258.504,-770.189,-6085.224
24.454864,-15,212,-2084,-2,-1,-1,15190.285,-258.323,-770.093,-6085.301
24.474853,-22,184,-2088,1,0,-3,15190.254,-258.157,-770.198,-6085.374,569,-283,-249
24.494842,-2,222,-2108,-1,-1,-2,15190.114,-258.074,-770.026,-6085.749
24.514831,2,209,-2102,-1,-1,-1,15190.045,-258.128,-770.070,-6085.911
24.534820,1,212,-2107,-1,-2,0,15189.971,-258.236,-770.233,-6086.072
24.554809,-15,216,-2054,-1,-3,-2,15189.946,-258.108,-770.178,-6086.147,569,-283,-249,35191
24.574798,-19,204,-2105,0,1,1,15189.923,-258.113,-770.336,-6086.183,575,-272,-253
24.594787,-18,211,-2095,-2,-1,-1,15189.867,-258.173,-770.465,-6086.306
24.614776,-10,198,-2106,-1,-2,-1,15189.789,-258.083,-770.466,-6086.504
24.634765,-25,223,-2117,-1,-1,-1,15189.669,-258.220,-770.477,-6086.796
24.654724,-15,194,-2093,-2,-1,-2,15189.641,-258.178,-770.385,-6086.878
24.674743,-21,214,-2099,-1,-3,1,15189.631,-258.022,-770.325,-6086.918,569,-268,-249
24.694732,-9,197,-2116,0,0,0,15189.623,-257.883,-770.222,-6086.957
24.714691,-4,219,-2078,-1,-1,0,15189.576,-257.814,-769.814,-6087.129
24.734710,-19,210,-2107,1,-1,0,15189.460,-257.635,-769.599,-6087.452
24.754699,-14,210,-2087,0,0,-2,15189.375,-257.517,-769.397,-6087.695
24.774688,-26,206,-2083,0,0,-1,15189.298,-257.432,-769.352,-6087.897,575,-279,-246
24.794677,-18,211,-2084,-3,-1,-2,15189.184,-257.398,-769.288,-6088.190
24.814666,-17,203,-2074,-1,-1,-2,15189.072,-257.326,-769.338,-6088.467
24.834655,-14,210,-2092,1,0,-2,15188.984,-257.366,-769.466,-6088.668
24.854614,-4,213,-2081,-2,-1,-3,15188.979,-257.250,-769.248,-6088.713
24.874633,-29,212,-2090,2,-1,-1,15188.853,-257.209,-769.177,-6089.038,563,-274,-260
24.894622,-24,202,-2095,-1,-1,-1,15188.765,-257.121,-768.995,-6089.284
24.914611,-22,208,-2088,0,0,-1,15188.679,-257.038,-768.775,-6089.530
24.934600,0,214,-2099,-1,-1,-4,15188.652,-256.924,-768.740,-6089.608
24.954559,-26,196,-2082,1,1,0,15188.589,-256.975,-768.639,-6089.774
24.974548,-7,203,-2093,-1,-1,-1,15188.447,-256.902,-768.574,-6090.141,564,-273,-252
24.994567,-1,214,-2094,0,0,-1,15188.320,-256.738,-768.647,-6090.456
25.014526,-4,211,-2095,0,0,-2,15188.210,-256.596,-768.674,-6090.733
25.034545,-18,222,-2096,0,0,-2,15188.071,-256.610,-768.878,-6091.051
25.054504,-5,202,-2094,-1,-1,-2,15187.964,-256.794,-768.950,-6091.301,564,-273,-252,35205
25.074493,-9,217,-2099,-1,-3,0,15187.893,-256.665,-768.827,-6091.500,572,-270,-248
25.094482,-9,208,-2104,0,0,0,15187.816,-256.627,-768.751,-6091.704
25.114471,-19,208,-2065,-1,0,-3,15187.704,-256.643,-768.751,-6091.982
25.134460,-24,225,-2081,-2,-1,-2,15187.671,-256.668,-768.701,-6092.069
25.154449,-3,197,-2069,-1,-1,-3,15187.594,-256.520,-768.714,-6092.266
25.174438,-9,220,-2099,-2,-1,0,15187.553,-256.259,-768.748,-6092.375,572,-274,-244
25.194458,-21,211,-2091,0,0,-2,15187.477,-255.983,-768.791,-6092.570
25.214447,-13,198,-2115,1,0,-2,15187.436,-255.685,-768.813,-6092.681
25.234405,-7,217,-2099,2,0,-1,15187.393,-255.632,-768.667,-6092.809
25.254394,-4,219,-2079,0,1,-1,15187.314,-255.540,-768.668,-6093.011
25.274383,-19,190,-2079,-1,-1,-1,15187.280,-255.540,-768.690,-6093.092,567,-282,-253
25.294372,-7,212,-2082,0,0,-2,15187.171,-255.479,-768.637,-6093.373
25.314361,-14,198,-2080,2,0,-2,15187.063,-255.294,-768.610,-6093.653
25.334350,-32,218,-2099,-1,-3,-2,15186.895,-255.516,-768.519,-6094.074
25.354370,0,214,-2069,-1,-4,-4,15186.882,-255.457,-768.498,-6094.113
25.374389,-3,213,-2088,2,0,0,15186.782,-255.669,-768.436,-6094.360,569,-278,-240
25.394317,-18,216,-2093,-3,-2,0,15186.699,-255.833,-768.358,-6094.570
25.414306,-13,205,-2103,-1,-2,-1,15186.717,-255.962,-768.230,-6094.535
25.434295,-24,212,-2083,-1,-2,1,15186.719,-256.003,-768.173,-6094.537
25.454284,4,223,-2106,0,0,-1,15186.648,-256.061,-768.257,-6094.700
25.474273,-6,196,-2090,0,1,0,15186.589,-256.140,-768.090,-6094.865,569,-273,-256
25.494262,-5,212,-2093,-1,-3,-2,15186.610,-256.130,-767.967,-6094.829
25.514251,-5,188,-2095,-1,-1,-1,15186.563,-255.975,-768.055,-6094.941
25.534240,-22,203,-2090,-1,-1,0,15186.470,-255.868,-768.000,-6095.184
25.554229,-24,189,-2082,-1,-1,-1,15186.447,-255.739,-767.880,-6095.263,569,-273,-256,35205
25.574218,0,205,-2078,0,0,1,15186.396,-255.722,-767.878,-6095.389,571,-268,-254
25.594207,-17,207,-2110,-1,-1,-1,15186.340,-255.972,-767.885,-6095.518
25.614196,-26,214,-2106,-3,-3,-2,15186.285,-255.859,-767.688,-6095.684
25.634185,-3,197,-2086,-1,-1,-2,15186.156,-255.851,-767.650,-6096.011
25.654174,-21,195,-2062,-1,-3,-2,15186.119,-255.656,-767.543,-6096.125
25.674163,-22,214,-2094,2,1,1,15186.047,-255.692,-767.237,-6096.340,566,-268,-252
25.694152,17,209,-2110,1,0,-1,15185.991,-255.703,-767.429,-6096.457
25.714141,-27,199,-2074,-3,-1,-1,15185.956,-255.663,-767.567,-6096.528
25.734130,-8,200,-2085,-2,-1,0,15185.863,-255.483,-767.538,-6096.771
25.754119,-13,216,-2085,0,1,0,15185.814,-255.371,-767.633,-6096.886
25.774108,-6,195,-2075,-2,-1,-1,15185.761,-255.314,-767.788,-6097.002,557,-266,-249
25.794097,0,210,-2107,-3,0,-2,15185.699,-255.165,-767.769,-6097.162
25.814086,-14,209,-2094,-1,-1,0,15185.601,-255.096,-767.878,-6097.396
25.834075,-15,208,-2087,-2,-2,-2,15185.526,-254.885,-767.826,-6097.599
25.854064,-23,211,-2066,1,1,-4,15185.406,-254.768,-768.033,-6097.876
25.874053,-22,207,-2063,-3,-1,-1,15185.372,-254.685,-768.132,-6097.952,564,-273,-252
25.894042,-10,216,-2076,0,1,-1,15185.309,-254.585,-768.120,-6098.114
25.914032,-20,206,-2079,-1,-2,-1,15185.171,-254.438,-767.985,-6098.480
25.934021,-2,214,-2086,1,0,-1,15185.174,-254.557,-768.216,-6098.439
25.954010,-7,210,-2078,-1,-1,-2,15185.124,-254.503,-768.286,-6098.559
25.973968,-15,224,-2086,0,0,-2,15185.114,-254.502,-768.134,-6098.603,569,-273,-242
25.993988,-9,210,-2100,0,2,-1,15185.035,-254.425,-768.110,-6098.804
26.013946,-24,208,-2113,-1,-1,-2,15184.891,-254.581,-767.905,-6099.184
26.033966,-19,220,-2088,-2,-3,-1,15184.724,-254.452,-768.083,-6099.582
26.053955,-14,205,-2059,-3,-1,-3,15184.575,-254.445,-768.165,-6099.941,569,-273,-242,35222
26.073944,-7,207,-2092,-2,-1,-2,15184.447,-254.372,-768.176,-6100.264,570,-267,-253
26.093933,-30,198,-2076,-2,-2,-1,15184.363,-254.314,-768.289,-6100.460
26.113922,-4,213,-2061,0,0,-2,15184.289,-254.128,-768.204,-6100.663
26.133911,-5,212,-2094,0,-1,0,15184.168,-253.949,-768.112,-6100.982
26.153869,-21,214,-2090,1,0,-3,15184.096,-253.851,-767.940,-6101.188
26.173858,5,212,-2078,-2,-1,-2,15183.964,-253.904,-767.923,-6101.516,569,-276,-252
26.193847,-15,220,-2090,-3,-2,-3,15183.862,-253.896,-768.075,-6101.751
26.213867,-24,217,-2096,-1,0,-2,15183.773,-253.770,-767.937,-6101.994
26.233856,-5,197,-2127,2,0,-2,15183.695,-253.659,-767.904,-6102.197
26.253845,-13,200,-2067,-1,-1,-1,15183.628,-253.655,-768.003,-6102.351
26.273834,-10,206,-2073,-3,-2,-2,15183.482,-253.544,-768.111,-6102.708,570,-284,-246
26.293823,-19,206,-2075,-2,-1,0,15183.405,-253.419,-768.074,-6102.907
26.313812,-18,212,-2095,-1,-1,-1,15183.327,-253.210,-768.166,-6103.099
26.333801,-4,194,-2106,0,1,-1,15183.296,-253.090,-768.222,-6103.174
26.353790,-19,199,-2104,-1,-1,-3,15183.114,-253.112,-768.262,-6103.620
26.373779,-18,192,-2097,0,-1,-2,15183.086,-253.099,-768.111,-6103.710,570,-286,-248
26.393768,-25,215,-2091,-1,-3,-1,15183.018,-253.034,-768.262,-6103.863
26.413726,2,232,-2097,-2,-1,-1,15182.944,-252.939,-768.131,-6104.069
26.433746,-15,211,-2078,-1,-1,-2,15182.873,-252.992,-768.247,-6104.227
26.453735,-21,222,-2120,0,0,-1,15182.805,-252.954,-768.337,-6104.387
26.473724,-40,220,-2119,0,0,-1,15182.759,-252.901,-768.344,-6104.502,566,-268,-256
26.493682,-24,207,-2098,-1,-2,0,15182.680,-252.806,-768.238,-6104.716
26.513671,-16,202,-2083,-2,-2,-3,15182.546,-252.978,-768.144,-6105.055
26.533660,-9,208,-2070,-2,-3,0,15182.451,-252.958,-768.124,-6105.294
26.553649,-23,214,-2090,0,1,-1,15182.357,-252.996,-768.013,-6105.541,566,-268,-256,35210
26.573669,-17,217,-2099,0,0,-1,15182.286,-252.747,-767.948,-6105.734,567,-270,-258
26.593719,-10,220,-2104,-1,-1,1,15182.189,-252.568,-768.097,-6105.965
26.613647,0,196,-2104,-1,-1,-1,15182.119,-252.839,-767.952,-6106.145
26.633605,-14,209,-2087,-1,-2,0,15182.052,-252.925,-768.006,-6106.302
26.653595,-16,206,-2072,-2,-3,1,15181.990,-252.886,-767.979,-6106.462
26.673584,-39,194,-2081,-1,-1,-2,15181.899,-252.851,-767.815,-6106.709,566,-268,-242
26.693573,5,199,-2093,1,0,-1,15181.837,-252.670,-767.856,-6106.867
26.713592,1,199,-2090,-1,-1,-3,15181.751,-252.815,-767.890,-6107.070
26.733551,-17,197,-2095,0,0,-2,15181.679,-252.925,-768.000,-6107.231
26.753540,-1,200,-2060,-2,-4,0,15181.563,-252.751,-768.135,-6107.510
26.773529,0,194,-2113,-1,-1,-1,15181.484,-252.640,-768.138,-6107.709,564,-271,-245
26.793518,-13,230,-2062,-1,-2,2,15181.409,-252.599,-768.043,-6107.908
26.813507,-9,207,-2099,0,0,-1,15181.320,-252.750,-768.098,-6108.119
26.833496,-27,225,-2075,-2,-1,-2,15181.353,-252.848,-768.028,-6108.041
26.853485,-14,206,-2085,-2,-1,-1,15181.314,-253.000,-768.071,-6108.126
26.873474,-13,208,-2094,-2,-1,0,15181.275,-253.043,-768.199,-6108.205,567,-282,-253
26.893463,-14,212,-2088,-1,-1,-1,15181.151,-253.262,-768.248,-6108.497
26.913452,-4,200,-2095,-2,-3,-2,15181.079,-253.399,-768.263,-6108.669
26.933441,-11,214,-2115,-3,-1,-1,15180.957,-253.288,-768.161,-6108.988
26.953430,7,205,-2104,0,0,-2,15180.873,-253.287,-768.252,-6109.186
26.973419,-25,205,-2090,-2,-1,0,15180.816,-253.156,-768.154,-6109.346,564,-273,-252
26.993408,-20,210,-2105,1,0,0,15180.706,-252.940,-768.180,-6109.626
27.013397,-10,202,-2091,0,1,-2,15180.637,-253.140,-768.107,-6109.798
27.033386,-5,202,-2081,-1,-3,-2,15180.585,-253.047,-767.839,-6109.963
27.053375,-10,206,-2104,-1,-1,-1,15180.501,-253.133,-767.834,-6110.169,564,-273,-252,35191
27.073364,-26,220,-2109,0,0,-1,15180.445,-253.015,-767.733,-6110.328,569,-278,-263
27.093353,-16,218,-2079,1,1,0,15180.384,-252.830,-767.733,-6110.485
27.113342,-14,212,-2096,0,1,-1,15180.297,-252.661,-767.586,-6110.727
27.133331,-21,217,-2094,1,0,0,15180.203,-252.741,-767.433,-6110.977
27.153320,-23,206,-2092,-2,-2,-2,15180.152,-252.721,-767.478,-6111.099
27.173309,-36,205,-2068,-2,-2,-2,15180.066,-252.731,-767.537,-6111.304,564,-276,-254
27.193298,-21,211,-2070,0,-1,-2,15180.003,-252.800,-767.388,-6111.478
27.213287,-5,200,-2083,1,0,-1,15179.948,-252.854,-767.507,-6111.597
27.233276,-18,213,-2079,-2,-2,-1,15179.864,-252.885,-767.555,-6111.797
27.253265,-11,206,-2117,-2,-1,-1,15179.729,-252.845,-767.711,-6112.114
27.273254,-17,194,-2079,-2,-1,-2,15179.659,-252.574,-767.620,-6112.313,567,-262,-251
27.293243,-9,203,-2088,0,1,-2,15179.663,-252.527,-767.556,-6112.311
27.313232,-1,200,-2082,1,0,0,15179.552,-252.340,-767.624,-6112.587
27.333221,-8,211,-2087,-2,-1,-2,15179.480,-252.430,-767.757,-6112.744
27.353210,-15,228,-2094,-1,0,-3,15179.452,-252.247,-767.850,-6112.809
27.373199,-31,209,-2061,-2,-1,-1,15179.287,-252.154,-767.924,-6113.213,575,-274,-246
27.393188,-15,209,-2073,1,0,-4,15179.160,-251.905,-768.014,-6113.528
27.413177,-9,198,-2096,1,1,-2,15178.982,-251.906,-767.998,-6113.971
27.433166,-22,226,-2096,-2,-1,-2,15178.893,-251.900,-767.814,-6114.217
27.453155,-8,214,-2079,-1,-3,0,15178.814,-251.735,-767.828,-6114.418
27.473144,-8,207,-2112,0,0,0,15178.794,-251.757,-767.898,-6114.458,572,-277,-248
27.493133,-6,200,-2096,-1,-1,0,15178.742,-251.743,-767.965,-6114.579
27.513122,-16,210,-2100,0,0,0,15178.651,-251.671,-767.904,-6114.817
27.533111,-21,197,-2110,2,1,-2,15178.617,-251.722,-767.897,-6114.899
27.553100,-13,228,-2094,-2,-1,0,15178.526,-251.682,-767.767,-6115.142,572,-277,-248,35230
27.573089,-6,209,-2082,-1,-1,-1,15178.502,-251.496,-767.730,-6115.215,569,-278,-254
27.593078,-9,205,-2065,2,0,1,15178.424,-251.574,-767.612,-6115.421
27.613067,-14,200,-2109,-2,-1,-1,15178.331,-251.584,-767.484,-6115.666
27.633056,-22,207,-2099,-1,-3,-2,15178.244,-251.555,-767.655,-6115.861
27.653045,-19,189,-2097,-1,-1,-2,15178.179,-251.719,-767.536,-6116.030
27.673034,-16,197,-2095,-1,-2,0,15178.187,-251.500,-767.478,-6116.029,572,-272,-248
27.693023,-5,210,-2081,1,0,-2,15178.090,-251.709,-767.275,-6116.285
27.713012,-29,200,-2073,-1,-2,-2,15177.958,-251.721,-767.251,-6116.614
27.733001,-17,204,-2090,-1,-2,-2,15177.903,-251.646,-767.408,-6116.735
27.752960,2,182,-2083,0,0,-1,15177.836,-251.705,-767.390,-6116.902
27.772979,-17,200,-2102,0,-1,-2,15177.745,-251.701,-767.266,-6117.144,573,-273,-247
27.792938,-9,207,-2100,0,-1,-2,15177.721,-251.620,-767.117,-6117.224
27.813018,-17,205,-2098,1,0,0,15177.711,-251.625,-766.977,-6117.268
27.832916,6,212,-2098,-1,-1,0,15177.583,-251.600,-766.922,-6117.592
27.852935,-11,211,-2091,1,0,-3,15177.536,-251.390,-767.072,-6117.699
27.872924,-34,200,-2088,-1,-1,-1,15177.475,-251.251,-767.056,-6117.859,569,-280,-256
27.892913,-14,216,-2108,0,1,0,15177.466,-251.132,-767.300,-6117.853
27.912872,-14,225,-2075,0,0,0,15177.375,-251.027,-767.211,-6118.096
27.932891,-19,202,-2076,-2,-2,-2,15177.211,-251.079,-767.184,-6118.504
27.952880,-24,206,-2104,-1,-1,-1,15177.095,-251.102,-767.226,-6118.785
27.972869,-5,221,-2094,-2,-1,0,15177.049,-250.904,-767.291,-6118.900,567,-282,-251
27.992828,-13,186,-2096,1,0,-1,15177.027,-250.918,-767.397,-6118.940
28.012847,-21,205,-2069,1,1,-1,15176.962,-250.864,-767.455,-6119.096
28.032836,-23,211,-2072,-1,-1,-2,15176.880,-250.918,-767.415,-6119.303
28.052825,-28,216,-2100,0,0,-1,15176.780,-250.791,-767.514,-6119.543,567,-282,-251,35216
28.072814,-24,206,-2054,-2,-1,-2,15176.673,-250.537,-767.871,-6119.774,566,-285,-247
28.092803,-19,213,-2074,-1,0,-2,15176.594,-250.482,-767.832,-6119.978
28.112792,-1,224,-2093,0,0,0,15176.513,-250.365,-767.872,-6120.177
28.132751,-5,205,-2103,-1,-1,-2,15176.410,-250.466,-767.932,-6120.423
28.152740,-15,210,-2069,0,0,0,15176.306,-250.464,-768.115,-6120.657
28.172729,9,202,-2103,-1,-1,-2,15176.192,-250.432,-768.113,-6120.940,573,-280,-247
28.192718,-20,198,-2074,-1,-1,-2,15176.150,-250.577,-767.893,-6121.066
28.212707,-7,184,-2095,0,0,-2,15176.091,-250.392,-767.839,-6121.228
28.232727,-8,202,-2131,-1,-1,-1,15175.987,-250.230,-767.720,-6121.506
28.252685,-29,199,-2080,0,0,-3,15175.913,-250.078,-767.656,-6121.703
28.272674,-40,197,-2105,1,0,-1,15175.898,-250.098,-767.583,-6121.751,559,-273,-245
28.292663,-8,215,-2097,-2,-1,-1,15175.826,-250.124,-767.684,-6121.915
28.312683,-9,223,-2118,-1,-1,0,15175.794,-250.070,-767.723,-6121.991
28.332641,-21,190,-2076,1,0,0,15175.693,-250.050,-767.787,-6122.234
28.352630,-26,217,-2063,-2,-2,-1,15175.724,-249.848,-767.527,-6122.198
28.372619,-2,222,-2074,1,0,0,15175.652,-249.632,-767.399,-6122.402,567,-274,-246
28.392608,-28,213,-2083,1,0,0,15175.528,-249.630,-767.219,-6122.732
28.412597,-2,199,-2094,1,0,-3,15175.447,-249.669,-767.190,-6122.935
28.432586,-9,204,-2070,-1,-1,-2,15175.300,-249.664,-767.263,-6123.290
28.452575,-9,212,-2083,0,-1,-4,15175.166,-249.663,-767.367,-6123.609
28.472564,-4,199,-2090,-2,-1,-2,15175.070,-249.652,-767.326,-6123.851,570,-270,-258
28.492553,14,202,-2073,0,0,-2,15175.013,-249.554,-767.206,-6124.013
28.512542,-11,217,-2095,-2,-2,-2,15174.935,-249.586,-767.175,-6124.209
28.532531,-3,210,-2079,-2,-2,-2,15174.864,-249.614,-767.260,-6124.373
28.552520,-5,197,-2100,-2,-1,-2,15174.864,-249.738,-767.195,-6124.375,570,-270,-258,35185
28.572509,-10,213,-2095,-1,-2,0,15174.815,-249.732,-767.247,-6124.492,570,-272,-255
28.592498,-29,205,-2061,-2,-2,-2,15174.750,-249.778,-767.204,-6124.655
28.612487,0,209,-2100,0,0,-1,15174.758,-249.546,-767.196,-6124.646
28.632476,-10,207,-2106,0,1,-1,15174.660,-249.583,-767.239,-6124.882
28.652465,3,212,-2068,-1,-1,-3,15174.538,-249.473,-767.083,-6125.209
28.672454,-15,216,-2098,1,-1,-2,15174.459,-249.624,-766.853,-6125.427,571,-273,-254
28.692443,-3,209,-2076,0,0,-2,15174.429,-249.591,-766.831,-6125.505
28.712432,-15,226,-2080,-1,-2,-1,15174.428,-249.570,-766.914,-6125.498
28.732421,0,202,-2081,-1,-1,0,15174.367,-249.551,-766.873,-6125.655
28.752410,3,204,-2088,0,-1,-1,15174.299,-249.548,-766.998,-6125.809
28.772399,-18,202,-2065,-2,-2,0,15174.291,-249.498,-766.864,-6125.848,570,-274,-251
28.792388,-23,199,-2087,0,-1,1,15174.273,-249.541,-766.827,-6125.894
28.812377,-9,202,-2120,-2,-2,-4,15174.217,-249.434,-766.678,-6126.056
28.832366,-14,204,-2102,-2,-1,-2,15174.144,-249.607,-766.711,-6126.225
28.852355,-1,203,-2067,-1,-3,-3,15174.053,-249.587,-766.628,-6126.463
28.872345,-6,209,-2108,0,0,-2,15173.943,-249.549,-766.578,-6126.743,569,-271,-254
28.892334,-10,227,-2112,-1,-2,-2,15173.777,-249.681,-766.512,-6127.156
28.912323,-14,197,-2080,-1,-1,-2,15173.647,-249.791,-766.409,-6127.485
28.932312,-29,215,-2097,0,0,-1,15173.610,-249.828,-766.501,-6127.565
28.952301,4,213,-2062,-3,-1,2,15173.593,-249.748,-766.587,-6127.601
28.972290,-3,211,-2092,0,1,-1,15173.493,-249.737,-766.653,-6127.839,571,-276,-249
28.992279,-15,226,-2082,-2,-2,-2,15173.417,-249.649,-766.608,-6128.037
29.012268,-29,217,-2061,0,1,-4,15173.392,-249.640,-766.592,-6128.101
29.032318,-23,200,-2066,-1,-1,0,15173.365,-249.591,-766.722,-6128.153
29.052246,-13,195,-2082,0,1,-2,15173.382,-249.605,-766.479,-6128.141,571,-276,-249,35191
29.072235,-4,216,-2108,1,-1,0,15173.445,-249.588,-766.414,-6127.994,563,-267,-246
29.092224,3,215,-2093,-2,-2,1,15173.491,-249.462,-766.485,-6127.877
29.112213,-18,222,-2080,0,0,-1,15173.443,-249.516,-766.742,-6127.961
29.132171,-21,205,-2098,-1,0,-1,15173.402,-249.490,-766.838,-6128.052
29.152191,-14,193,-2096,0,0,0,15173.411,-249.363,-766.988,-6128.015
29.172180,1,211,-2116,0,1,0,15173.499,-249.344,-766.736,-6127.832,566,-276,-247
29.192169,-8,212,-2099,-2,-2,1,15173.523,-249.409,-766.784,-6127.761
29.212158,-11,206,-2090,0,0,0,15173.479,-249.442,-766.946,-6127.850
29.232147,-24,203,-2102,-2,-2,1,15173.469,-249.592,-766.938,-6127.868
29.252105,-20,221,-2087,-2,-1,-1,15173.399,-249.491,-767.022,-6128.036
29.272094,-7,199,-2082,-1,-1,-1,15173.496,-249.363,-767.015,-6127.801,571,-276,-242
29.292114,-9,213,-2074,1,1,1,15173.481,-249.123,-767.007,-6127.850
29.312103,-10,198,-2116,0,0,0,15173.445,-249.131,-766.935,-6127.948
29.332092,-13,212,-2092,0,-1,-1,15173.391,-249.167,-766.913,-6128.084
29.352050,1,186,-2110,-1,-1,-1,15173.382,-249.304,-766.917,-6128.099
29.372070,-6,215,-2079,-1,-1,0,15173.443,-249.357,-766.896,-6127.949,564,-273,-245
29.392059,-34,204,-2086,0,-2,0,15173.490,-249.175,-767.014,-6127.826
29.412048,2,208,-2096,0,1,1,15173.515,-249.058,-767.108,-6127.756
29.432037,-23,202,-2080,0,-1,0,15173.488,-249.159,-767.153,-6127.813
29.452026,-20,225,-2088,-1,-3,1,15173.532,-249.157,-767.121,-6127.709
29.471984,-1,202,-2092,0,-1,0,15173.508,-249.073,-767.179,-6127.763,567,-270,-251
29.491973,-10,225,-2086,-2,-3,0,15173.536,-248.844,-767.368,-6127.679
29.511962,-39,219,-2060,0,0,1,15173.509,-249.064,-767.360,-6127.738
29.531951,-22,195,-2092,-3,-3,1,15173.513,-248.913,-767.596,-6127.706
29.551971,-29,214,-2095,-1,-1,1,15173.551,-248.982,-767.662,-6127.600,567,-270,-251,35220
29.571960,-2,197,-2122,0,0,1,15173.545,-248.959,-767.738,-6127.606,569,-276,-254
29.591949,-5,217,-2112,0,0,-1,15173.597,-249.088,-767.857,-6127.457
29.611907,-3,191,-2073,-3,-2,1,15173.624,-249.093,-767.866,-6127.389
29.631927,-22,213,-2105,0,-1,1,15173.658,-248.949,-767.857,-6127.313
29.651977,-19,208,-2075,0,1,2,15173.710,-248.824,-767.711,-6127.207
29.671875,-21,210,-2079,2,0,0,15173.693,-248.810,-767.624,-6127.261
29.691894,-10,193,-2081,1,0,-2,15173.704,-248.778,-767.615,-6127.236,567,-279,-253
29.711883,-15,233,-2095,0,-1,0,15173.721,-248.791,-767.489,-6127.208
29.731842,-8,213,-2080,1,0,0,15173.787,-248.650,-767.437,-6127.058
29.751861,-1,214,-2085,-2,-1,0,15173.705,-248.685,-767.311,-6127.275
29.771820,-9,211,-2081,0,-2,0,15173.650,-248.953,-767.186,-6127.416
29.791809,-16,217,-2081,0,-1,-1,15173.689,-248.698,-767.072,-6127.344,567,-279,-255
29.811798,3,208,-2106,3,1,-1,15173.667,-248.661,-767.115,-6127.396
29.831787,-19,204,-2044,-1,-1,0,15173.763,-248.707,-767.005,-6127.168
29.851776,1,209,-2106,1,0,3,15173.701,-248.580,-766.863,-6127.344
29.871765,-7,209,-2079,3,0,-2,15173.727,-248.727,-766.807,-6127.282
29.891754,-13,206,-2097,-1,-2,1,15173.731,-248.535,-766.748,-6127.288,569,-268,-256
29.911743,-8,223,-2106,1,0,0,15173.744,-248.494,-766.760,-6127.255
29.931732,-16,207,-2094,0,0,0,15173.784,-248.513,-766.862,-6127.143
29.951721,-8,208,-2088,-1,-1,0,15173.741,-248.540,-766.922,-6127.240
29.971710,-24,224,-2067,0,0,-2,15173.738,-248.565,-766.894,-6127.252
29.991699,-20,210,-2091,0,0,0,15173.771,-248.702,-767.026,-6127.146,570,-272,-255
30.011688,-18,192,-2070,-2,-2,1,15173.807,-248.580,-766.948,-6127.072
30.031677,-2,198,-2084,-1,-1,0,15173.830,-248.713,-766.919,-6127.015
30.051666,-27,215,-2098,-2,-1,1,15173.804,-248.840,-766.978,-6127.067,570,-272,-255,35236
30.071685,-18,198,-2087,-2,-1,-1,15173.754,-248.538,-767.094,-6127.187
30.091644,-14,216,-2099,0,1,0,15173.722,-248.603,-767.271,-6127.242,570,-262,-248
30.111633,-19,216,-2095,-2,-2,0,15173.753,-248.572,-767.220,-6127.172
30.131622,-15,194,-2119,0,-1,-1,15173.730,-248.534,-767.276,-6127.223
30.151611,-20,206,-2099,0,0,-1,15173.735,-248.408,-767.137,-6127.234
30.171600,-30,206,-2116,1,0,1,15173.777,-248.313,-767.217,-6127.124
30.191589,-13,206,-2080,-2,-2,1,15173.740,-248.199,-767.195,-6127.223,563,-277,-258
30.211578,-8,216,-2106,0,0,1,15173.728,-248.309,-767.290,-6127.235
30.231567,-25,217,-2108,1,0,0,15173.804,-248.450,-767.222,-6127.052
30.251617,-23,212,-2102,0,0,2,15173.768,-248.382,-767.211,-6127.145
30.271545,-19,215,-2117,0,-1,-1,15173.803,-248.557,-767.245,-6127.045
30.291534,-23,204,-2091,-2,-2,1,15173.868,-248.561,-767.157,-6126.897,565,-267,-248
30.311523,-14,203,-2102,-1,-2,0,15173.833,-248.437,-767.125,-6126.992
30.331512,-5,199,-2086,1,0,-1,15173.858,-248.288,-767.298,-6126.913
30.351501,4,192,-2068,-1,-1,1,15173.824,-248.253,-767.224,-6127.008
30.371490,-1,188,-2094,1,0,-1,15173.816,-248.374,-767.216,-6127.024
30.391479,-10,219,-2094,-1,-2,-1,15173.819,-248.192,-767.152,-6127.034,570,-267,-251
30.411468,-13,208,-2074,0,0,0,15173.834,-248.101,-767.126,-6127.003
30.431457,-31,207,-2092,0,0,0,15173.800,-248.003,-767.134,-6127.089
30.451446,-8,222,-2090,1,0,0,15173.811,-247.877,-767.220,-6127.056
30.471435,1,197,-2105,-1,1,-1,15173.908,-247.798,-767.222,-6126.819
30.491424,-20,211,-2100,1,2,2,15173.926,-247.995,-766.965,-6126.799,563,-267,-248
30.511413,-10,210,-2080,0,0,0,15173.885,-248.080,-766.973,-6126.897
30.531402,-10,205,-2075,-3,-2,-1,15173.940,-248.056,-767.082,-6126.746
30.551391,-9,214,-2090,-2,0,1,15173.937,-248.035,-767.105,-6126.753,563,-267,-248,35222
30.571380,-24,188,-2075,0,0,-1,15174.042,-247.974,-766.858,-6126.526
30.591369,-8,225,-2068,2,0,1,15174.053,-247.974,-766.856,-6126.500,572,-274,-255
30.611358,7,199,-2095,0,0,-1,15174.001,-247.911,-766.869,-6126.629
30.631347,-11,215,-2078,-1,0,0,15173.996,-248.068,-766.771,-6126.646
30.651306,-10,228,-2097,-1,-2,0,15174.016,-248.061,-766.558,-6126.623
30.671295,-9,199,-2103,1,0,0,15173.925,-248.142,-766.623,-6126.838
30.691314,-10,199,-2107,-2,-1,-2,15173.941,-248.110,-766.550,-6126.808,566,-273,-254
30.711303,-21,206,-2082,1,0,1,15173.915,-248.033,-766.286,-6126.910
30.731292,-20,208,-2100,0,-1,-1,15173.952,-248.136,-766.328,-6126.809
30.751281,-27,199,-2080,-2,-1,2,15173.948,-248.047,-766.344,-6126.819
30.771240,-23,202,-2080,0,0,0,15173.943,-248.066,-766.318,-6126.836
30.791259,-3,203,-2107,-1,-2,-2,15173.951,-248.180,-766.259,-6126.819,570,-274,-260
30.811248,-25,213,-2091,-3,-3,-1,15173.940,-248.088,-766.480,-6126.821
30.831237,-21,195,-2088,-1,-1,0,15173.911,-248.206,-766.559,-6126.877
30.851226,-36,203,-2080,0,-2,1,15173.844,-248.247,-766.476,-6127.054
30.871215,-14,210,-2110,0,-2,0,15173.821,-248.377,-766.378,-6127.117
30.891204,3,205,-2090,-1,-2,-1,15173.875,-248.355,-766.173,-6127.010,572,-274,-253
30.911193,-2,210,-2088,-1,-1,0,15173.952,-248.391,-766.192,-6126.816
30.931182,-24,216,-2076,-2,-2,1,15173.930,-248.481,-766.174,-6126.869
30.951141,-15,194,-2110,-1,-1,0,15173.884,-248.510,-766.369,-6126.958
30.971160,-27,208,-2086,0,0,0,15173.884,-248.492,-766.249,-6126.972
30.991149,-7,196,-2102,0,0,0,15173.863,-248.369,-766.286,-6127.024,564,-268,-247
31.011108,-9,217,-2091,0,0,0,15173.879,-248.432,-766.166,-6126.998
31.031097,-18,222,-2108,0,0,1,15173.877,-248.561,-765.984,-6127.020
31.051086,-11,210,-2100,0,-2,2,15173.822,-248.608,-765.901,-6127.164,564,-268,-247,35216
31.071105,-33,204,-2100,-2,-2,-1,15173.781,-248.721,-765.884,-6127.264
31.091095,-27,219,-2079,-2,-2,1,15173.818,-248.582,-765.710,-6127.198,573,-271,-249
31.111084,-10,210,-2091,1,0,0,15173.785,-248.539,-765.614,-6127.294
31.131073,-9,211,-2106,0,0,0,15173.728,-248.587,-765.643,-6127.430
31.151062,-23,213,-2075,-2,-1,0,15173.693,-248.432,-765.638,-6127.523
31.171020,-18,183,-2111,0,0,-3,15173.634,-248.541,-765.653,-6127.664
31.191009,-31,204,-2062,0,0,-1,15173.656,-248.539,-765.407,-6127.641,571,-276,-252
31.210998,-9,219,-2107,0,-1,1,15173.721,-248.349,-765.379,-6127.490
31.231018,-9,206,-2096,0,0,1,15173.739,-248.393,-765.247,-6127.460
31.251007,5,190,-2065,0,-3,1,15173.753,-248.347,-765.216,-6127.431
31.270965,-15,219,-2098,-2,-2,1,15173.768,-248.319,-765.162,-6127.402
31.290954,-17,216,-2081,-1,-2,2,15173.776,-248.410,-765.207,-6127.375,567,-267,-248
31.310943,-18,211,-2071,-2,-3,0,15173.753,-248.289,-765.306,-6127.422
31.330932,-11,187,-2088,1,0,0,15173.780,-248.097,-765.502,-6127.340
31.350921,2,217,-2078,0,1,1,15173.698,-247.926,-765.493,-6127.551
31.370910,-23,215,-2081,0,0,-2,15173.695,-247.891,-765.506,-6127.558
31.390899,-22,215,-2062,0,0,0,15173.704,-247.877,-765.509,-6127.535,571,-268,-254
31.410888,-6,193,-2091,-1,-1,1,15173.778,-247.802,-765.648,-6127.339
31.430877,-9,218,-2100,-2,-2,2,15173.862,-247.919,-765.839,-6127.102
31.450866,-8,222,-2097,-2,-1,2,15173.846,-247.972,-765.642,-6127.164
31.470916,3,228,-2093,1,0,0,15173.830,-248.008,-765.472,-6127.223
31.490844,-18,210,-2092,2,-1,-1,15173.897,-247.849,-765.452,-6127.067,565,-282,-241
31.510833,-29,228,-2100,0,0,2,15173.936,-247.672,-765.648,-6126.952
31.530822,-7,221,-2090,-1,-1,0,15173.901,-247.611,-765.560,-6127.052
31.550811,-18,197,-2071,-1,-2,-1,15173.842,-247.690,-765.637,-6127.187,565,-282,-241,35216
31.570831,-9,213,-2081,-1,-2,-2,15173.821,-247.509,-765.724,-6127.233
31.590789,-26,223,-2085,0,0,-2,15173.838,-247.434,-765.669,-6127.201,571,-278,-259
31.610778,-6,208,-2078,1,0,0,15173.791,-247.322,-765.584,-6127.333
31.630767,-25,208,-2084,1,0,-1,15173.812,-247.331,-765.777,-6127.257
31.650756,-4,211,-2105,-2,0,0,15173.818,-247.308,-765.905,-6127.228
31.670745,-7,209,-2106,0,0,1,15173.871,-247.490,-766.017,-6127.075
31.690734,-2,210,-2070,0,0,2,15173.868,-247.469,-765.957,-6127.090,566,-276,-252
31.710723,-6,204,-2103,-1,-2,-2,15173.927,-247.612,-765.927,-6126.943
31.730712,-32,199,-2103,0,0,1,15173.909,-247.606,-765.881,-6126.993
31.750701,-17,198,-2122,0,0,0,15173.841,-247.469,-765.927,-6127.161
31.770690,-3,198,-2108,0,1,0,15173.853,-247.315,-766.019,-6127.126
31.790679,-10,199,-2090,-1,-2,1,15173.809,-247.471,-766.107,-6127.217,566,-276,-252
31.810668,-23,223,-2068,-1,-1,1,15173.854,-247.350,-766.229,-6127.096
31.830657,-15,202,-2083,-1,-1,1,15173.832,-247.349,-766.239,-6127.149
31.850647,-15,218,-2074,1,0,0,15173.844,-247.351,-766.181,-6127.126
31.870636,-17,202,-2120,0,0,-1,15173.849,-247.355,-766.298,-6127.099
31.890625,-31,200,-2103,-2,-1,0,15173.782,-247.351,-766.195,-6127.277,565,-274,-246
31.910614,-21,207,-2094,2,0,-1,15173.680,-247.232,-766.232,-6127.530
31.930603,-10,205,-2106,-1,-1,-2,15173.659,-247.199,-766.254,-6127.581
31.950592,-22,213,-2102,-1,-2,0,15173.636,-247.131,-766.346,-6127.631
31.970581,-17,215,-2091,1,0,-2,15173.616,-247.134,-766.243,-6127.692
31.990570,2,213,-2120,1,0,0,15173.603,-247.004,-766.068,-6127.751,570,-272,-255
32.010559,-10,208,-2092,2,0,0,15173.594,-246.826,-765.936,-6127.797
32.030548,-16,211,-2068,2,0,1,15173.610,-246.852,-765.840,-6127.768
32.050537,-17,212,-2069,0,0,0,15173.610,-246.659,-765.843,-6127.775,570,-272,-255,35214
32.070526,-14,215,-2132,0,0,0,15173.626,-246.617,-765.752,-6127.749
32.090515,-17,209,-2096,0,-1,1,15173.597,-246.414,-765.663,-6127.841,577,-272,-258
32.110504,-18,210,-2080,1,0,-1,15173.647,-246.359,-765.562,-6127.732
32.130493,7,208,-2096,2,0,0,15173.630,-246.273,-765.528,-6127.781
32.150482,-14,220,-2079,-1,-2,0,15173.580,-246.156,-765.542,-6127.908
32.170471,-22,228,-2084,1,0,0,15173.536,-246.075,-765.751,-6127.995
32.190460,-20,196,-2091,0,0,-1,15173.525,-246.113,-765.855,-6128.007,571,-278,-254
32.210449,-13,204,-2094,0,0,0,15173.520,-246.062,-765.874,-6128.018
32.230438,-28,204,-2082,1,1,-1,15173.514,-245.926,-765.998,-6128.023
32.250396,3,191,-2083,-2,-1,-1,15173.496,-246.006,-765.884,-6128.080
32.270416,-26,208,-2107,2,0,0,15173.499,-246.040,-766.097,-6128.044
32.290405,-11,223,-2118,-1,-1,0,15173.481,-246.076,-765.965,-6128.104,566,-266,-256
32.310394,2,212,-2102,0,0,0,15173.457,-246.144,-765.947,-6128.162
32.330383,-15,208,-2082,0,0,1,15173.432,-246.170,-766.057,-6128.210
32.350341,-14,228,-2092,0,0,-1,15173.357,-246.030,-765.852,-6128.427
32.370330,-3,213,-2086,1,0,-2,15173.368,-246.076,-765.821,-6128.402
32.390350,-3,231,-2091,0,0,1,15173.369,-246.087,-765.715,-6128.411,559,-280,-254
32.410339,-8,206,-2109,0,0,-1,15173.353,-246.155,-765.974,-6128.417
32.430328,-9,203,-2076,-1,-1,0,15173.383,-246.010,-766.092,-6128.333
32.450317,-7,222,-2079,0,2,1,15173.329,-245.904,-766.134,-6128.464
