;Title, http://www.gcdataconcepts.com, HAM-IMU, MPU-9250
;Version, 1191, Build date, Nov 15 2016,  SN:CCDC30161C28AA2
;Start_time, 2018-06-19, 17:34:24.345
;Temperature, -999.00, deg C,  Vbat, 4128, mv
;MPU SR, 200,Hz,  Accel sens, 2048,counts/g, Gyro sens, 16,counts/dps,  Mag SR, 10,Hz,  Mag sens, 1666,counts/mT
;Deadband, 0, counts
;DeadbandTimeout, 5,sec
;Time, Ax, Ay, Az, Gx, Gy, Gz, Qw, Qx, Qy, Qz, Mx, My, Mz, T
0.001617,523,2035,267,6,-107,-54,32.320,12169.271,-1981.280,10789.706
0.008728,448,2092,367,122,-73,39,38.433,12150.150,-1997.856,10808.163,461,169,450
0.028717,398,2009,375,162,-84,56,47.515,12133.468,-2016.379,10823.416
0.049102,477,1963,232,122,-110,44,62.008,12123.317,-2036.070,10831.029
0.068695,496,1972,242,68,-140,25,79.682,12112.569,-2057.950,10838.800
0.088653,520,2025,319,101,-156,31,97.901,12098.158,-2083.524,10849.855
0.108673,452,2035,375,116,-178,51,115.841,12084.692,-2116.245,10858.349,455,170,440
0.128631,439,2050,454,87,-197,84,134.304,12077.426,-2153.755,10858.845
0.149017,418,2045,457,22,-232,88,156.374,12079.704,-2194.074,10847.938
0.168609,409,2022,317,-67,-271,71,183.627,12092.862,-2236.590,10824.142
0.188598,416,1979,267,-166,-310,55,215.301,12110.254,-2280.405,10794.932
0.208618,489,1966,254,-155,-331,42,250.618,12122.658,-2326.781,10770.324,471,183,443
0.228576,459,1991,360,-117,-357,51,286.337,12128.568,-2379.931,10751.150
0.248932,427,1995,453,-59,-371,92,321.123,12131.931,-2439.171,10733.080
0.268554,391,1969,309,-88,-393,119,353.604,12141.944,-2501.678,10706.316
0.288543,415,1911,217,-140,-392,134,383.991,12149.447,-2564.568,10681.850
0.308532,378,1921,240,-79,-382,145,412.510,12145.319,-2625.102,10670.770,458,174,441
0.328521,348,1974,378,17,-344,148,439.248,12130.478,-2678.848,10673.227
0.348877,386,2048,493,103,-296,134,462.097,12115.350,-2724.752,10677.823
0.368469,410,2031,504,70,-251,114,479.967,12109.637,-2764.438,10673.314
0.388458,455,2030,494,-9,-220,97,492.965,12115.086,-2799.343,10657.429
0.408447,464,2009,476,-112,-188,86,500.081,12129.305,-2831.667,10632.355,450,177,435
0.428436,485,1998,451,-176,-162,90,501.107,12148.822,-2862.046,10601.845
0.448822,481,1955,402,-213,-137,99,499.576,12170.110,-2891.531,10569.452,450,177,435,30693
0.468414,496,1951,421,-225,-128,99,498.232,12190.187,-2919.840,10538.551
0.488403,542,1926,420,-202,-132,91,499.189,12207.475,-2948.181,10510.567
0.508392,544,1918,456,-178,-139,88,502.316,12223.510,-2976.939,10483.642,455,168,437
0.528381,591,1917,447,-167,-151,82,508.635,12237.513,-3007.068,10458.371
0.548736,613,1918,509,-145,-171,77,518.452,12248.152,-3040.113,10435.858
0.568359,607,1931,529,-123,-202,81,533.174,12257.032,-3078.281,10413.477
0.588348,572,1931,553,-114,-240,88,554.499,12265.813,-3120.157,10389.534
0.608307,524,1890,527,-118,-291,69,584.437,12275.355,-3162.688,10363.731,458,169,450
0.628296,488,1896,484,-111,-315,36,620.942,12282.422,-3198.982,10342.074
0.648681,485,1893,553,-60,-313,-15,665.231,12284.681,-3228.268,10327.526
0.668274,461,1915,559,-5,-307,-61,712.672,12284.708,-3249.943,10317.526
0.688263,450,1899,543,16,-284,-100,759.441,12284.255,-3263.519,10310.441
0.708252,478,1912,647,33,-240,-126,803.634,12283.201,-3269.543,10306.438,443,165,447
0.728210,484,1960,672,41,-194,-145,842.462,12284.944,-3269.021,10301.424
0.748596,470,1944,645,13,-157,-153,875.475,12289.734,-3265.073,10294.208
0.768188,447,1898,587,-10,-130,-148,902.936,12297.803,-3257.264,10284.669
0.788208,378,1910,522,-43,-74,-155,925.259,12305.525,-3240.726,10278.671
0.808166,393,1900,527,2,-22,-176,951.374,12308.805,-3215.793,10280.191,452,160,454
0.828155,422,1939,515,54,-19,-225,984.623,12311.140,-3186.204,10283.477
0.848541,426,1943,447,48,-39,-265,1023.548,12313.559,-3156.377,10285.977
0.868133,414,1933,482,66,-61,-279,1069.158,12310.292,-3127.208,10294.155
0.888122,459,1938,459,131,-105,-296,1126.000,12301.567,-3102.506,10305.991
0.908111,481,1963,480,164,-173,-306,1192.162,12289.968,-3086.877,10317.075,444,164,450
0.928100,440,1998,487,167,-248,-291,1263.823,12277.531,-3082.283,10324.725
0.948455,368,1974,493,160,-315,-263,1344.798,12263.413,-3087.169,10329.813,444,164,450,30697
0.968048,430,1970,453,153,-397,-266,1439.142,12251.112,-3101.265,10327.473
0.988067,490,1982,384,138,-511,-279,1546.020,12236.846,-3129.146,10320.529
1.008026,363,1953,447,118,-612,-257,1656.208,12217.825,-3168.363,10314.001,435,170,449
1.028015,344,1972,420,134,-674,-210,1780.301,12198.095,-3226.225,10298.733
1.048401,239,2007,472,107,-788,-182,1903.844,12176.790,-3288.235,10282.223
1.067993,142,2030,462,107,-787,-171,2025.604,12158.359,-3349.409,10261.000
1.088043,80,1978,509,63,-768,-177,2146.195,12142.982,-3405.260,10236.282
1.107971,50,1990,494,49,-732,-206,2259.342,12134.901,-3449.934,10206.514,423,168,442
1.127960,106,1977,532,-14,-649,-237,2360.392,12133.863,-3482.320,10173.829
1.148315,126,1985,474,-50,-542,-249,2440.236,12139.818,-3502.370,10140.951
1.167938,132,1997,415,-98,-385,-224,2496.816,12148.635,-3512.872,10112.949
1.187927,68,1966,447,-76,-260,-174,2534.477,12150.378,-3514.295,10100.985
1.207916,3,1992,488,29,-128,-124,2554.795,12146.732,-3503.776,10103.906,411,172,440
1.227874,-3,2011,545,70,5,-103,2558.515,12144.998,-3478.989,10113.609
1.248260,-36,2008,474,79,125,-109,2549.482,12147.124,-3442.742,10125.733
1.267883,-58,2022,396,64,214,-116,2532.048,12151.758,-3395.290,10140.560
1.287841,-46,2014,392,82,295,-138,2508.020,12155.447,-3334.604,10162.224
1.307830,38,2006,423,117,374,-165,2478.903,12157.326,-3263.194,10190.263,393,162,441
1.327819,86,2038,412,159,436,-177,2442.160,12156.727,-3186.402,10224.094
1.348175,121,2071,464,176,493,-156,2393.339,12154.549,-3108.448,10262.156
1.367798,212,2069,438,187,538,-104,2333.823,12151.572,-3037.895,10300.446
1.387787,263,2058,377,156,546,-23,2263.463,12148.725,-2980.412,10336.237
1.407745,276,2000,341,135,534,68,2185.272,12139.467,-2937.272,10376.213,380,168,430
1.427734,244,1994,293,170,514,168,2099.249,12122.409,-2905.392,10422.787
1.448120,204,2011,290,212,515,249,2006.962,12097.547,-2880.389,10476.653,380,168,430,30683
1.467712,192,2035,306,257,521,306,1911.914,12067.211,-2858.521,10535.240
1.487701,209,2057,369,285,519,329,1817.540,12035.001,-2838.018,10594.167
1.507690,183,2078,430,289,502,326,1724.431,12004.930,-2817.431,10649.202,381,164,429
1.527679,159,2092,404,246,511,315,1629.580,11984.598,-2791.694,10693.724
1.548034,213,2060,347,163,537,273,1536.787,11974.818,-2756.791,10727.421
1.567657,275,2036,321,79,550,203,1447.409,11974.754,-2715.471,10750.438
1.587646,337,2036,288,14,552,159,1360.119,11979.419,-2671.804,10767.567
1.607635,349,2056,293,-14,542,139,1274.437,11985.252,-2629.246,10782.023,406,172,430
1.627594,370,2028,296,-29,529,139,1191.038,11992.878,-2589.355,10792.728
1.647979,401,2026,264,-50,494,135,1114.301,12001.978,-2555.350,10798.911
1.667572,391,2039,286,-72,443,134,1042.470,12011.899,-2525.652,10802.039
1.687561,382,2044,291,-86,398,126,977.566,12024.396,-2499.010,10800.400
1.707550,350,2030,352,-103,361,106,921.506,12038.760,-2473.256,10795.255,417,169,429
1.727539,360,2023,395,-124,314,69,874.964,12058.231,-2448.207,10783.099
1.747894,334,2007,405,-179,268,28,836.006,12086.779,-2422.694,10759.965
1.767517,327,1992,388,-251,233,-15,805.224,12123.975,-2397.524,10726.050
1.787506,359,1953,342,-327,191,-49,780.537,12168.821,-2373.792,10682.280
1.807495,336,1953,339,-382,158,-70,758.727,12215.784,-2349.847,10635.441,417,166,424
1.827484,307,1906,383,-383,149,-84,741.083,12262.270,-2324.839,10588.583
1.847839,291,1876,413,-377,136,-105,727.322,12309.322,-2298.357,10540.615
1.867431,292,1824,373,-388,127,-125,717.050,12357.654,-2271.409,10490.489
1.887420,336,1789,369,-393,109,-137,706.990,12404.705,-2245.025,10441.205
1.907409,356,1774,341,-380,111,-128,695.213,12449.281,-2221.382,10393.891,435,175,430
1.927398,388,1775,370,-367,105,-105,679.723,12489.573,-2201.458,10350.727
1.947754,380,1829,457,-327,118,-67,659.560,12525.659,-2186.198,10311.587,435,175,430,30718
1.967376,379,1865,506,-301,116,-26,635.716,12559.369,-2177.166,10273.923
1.987335,373,1993,544,-312,114,20,607.387,12596.259,-2172.928,10231.284
2.007354,388,2062,685,-339,112,45,578.322,12632.624,-2170.689,10188.518,441,174,443
2.027343,438,2092,690,-353,100,51,552.766,12676.540,-2172.962,10134.765
2.047699,453,2038,632,-443,52,49,530.312,12728.513,-2182.014,10068.663
2.067291,532,2048,563,-512,6,67,510.195,12784.739,-2199.093,9994.477
2.087280,504,2043,564,-553,-34,89,491.748,12836.240,-2223.304,9923.783
2.107269,477,1976,515,-497,-63,119,476.749,12882.591,-2254.137,9857.274,444,164,462
2.127258,443,2021,491,-462,-104,137,467.205,12921.827,-2288.619,9798.252
2.147644,425,2040,586,-390,-129,136,464.653,12949.438,-2323.011,9753.727
2.167236,417,2110,637,-269,-152,121,469.060,12972.539,-2356.812,9714.633
2.187194,388,2090,670,-259,-169,97,476.134,12994.217,-2388.018,9677.624
2.207214,399,2063,697,-239,-161,80,482.151,13018.224,-2413.329,9638.705,439,147,471
2.227203,401,1996,666,-274,-133,51,484.607,13045.976,-2431.124,9596.497
2.247558,418,1942,636,-292,-87,28,483.365,13074.515,-2442.352,9554.776
2.267181,418,1864,620,-288,-52,12,477.543,13102.815,-2448.178,9514.727
2.287170,433,1858,493,-290,-8,5,467.717,13129.749,-2448.605,9477.906
2.307190,446,1850,576,-246,26,-5,454.066,13146.859,-2443.770,9456.075,443,148,489
2.327118,437,1797,629,-132,72,-4,436.162,13157.097,-2434.793,9444.986
2.347503,386,1778,590,-95,116,-2,415.061,13166.480,-2420.168,9436.618
2.367096,366,1768,558,-87,149,-26,394.434,13174.458,-2396.229,9432.475
2.387085,376,1751,617,-40,180,-77,376.440,13178.224,-2361.083,9436.812
2.407074,363,1789,582,11,211,-131,358.984,13182.475,-2315.791,9442.776,445,134,486
2.427063,368,1814,584,1,249,-177,343.349,13184.916,-2259.186,9453.656
2.447418,359,1802,518,46,269,-238,330.910,13185.996,-2192.480,9468.287,445,134,486,30712
2.467041,360,1805,519,69,298,-289,319.496,13183.694,-2116.884,9489.066
2.486999,418,1813,581,117,326,-327,307.789,13178.339,-2036.176,9514.519
2.507019,440,1828,545,143,346,-336,294.203,13171.385,-1954.653,9541.636,450,131,500
2.526977,474,1819,568,139,350,-327,278.187,13163.452,-1876.702,9568.676
2.547363,490,1868,565,145,345,-294,258.511,13154.707,-1806.287,9594.770
2.566955,497,1902,583,132,337,-243,235.402,13146.017,-1743.739,9618.816
2.586944,459,1910,536,130,314,-199,214.171,13137.053,-1690.372,9641.060
2.606933,429,1881,492,117,269,-169,196.817,13127.247,-1645.460,9662.533,451,145,495
2.626892,467,1783,343,117,220,-146,187.648,13112.514,-1609.802,9688.691
2.647277,467,1746,313,200,152,-123,182.875,13086.366,-1583.248,9728.429
2.666870,472,1744,258,293,110,-87,182.069,13049.673,-1566.541,9780.300
2.686859,485,1759,306,398,66,-48,184.280,13000.362,-1559.233,9846.870
2.706848,488,1821,307,496,31,-9,185.735,12943.112,-1560.486,9921.778,445,131,491
2.726837,476,1841,378,552,14,42,186.070,12879.606,-1569.883,10002.601
2.747192,476,1866,412,576,-4,81,183.879,12820.277,-1583.933,10076.372
2.766815,459,1906,444,505,-8,102,180.284,12769.275,-1599.792,10138.501
2.786804,435,1942,479,419,-7,104,173.247,12729.877,-1612.662,10186.018
2.806793,361,1897,487,301,6,86,168.773,12705.454,-1620.792,10215.255,449,135,481
2.826782,400,1898,392,155,-2,37,171.844,12699.439,-1623.758,10222.210
2.847137,404,1890,333,2,-29,-25,180.208,12701.834,-1620.823,10219.555
2.866729,380,1907,282,-31,-28,-69,190.178,12707.995,-1610.656,10213.321
2.886749,305,1920,254,-58,-7,-107,198.312,12717.337,-1591.181,10204.587
2.906707,217,1872,390,-75,46,-145,206.892,12726.029,-1558.936,10198.555,446,147,474
2.926696,124,1823,407,-60,91,-207,214.886,12741.330,-1509.360,10186.736
2.947082,93,1694,353,-131,158,-294,224.865,12766.220,-1439.875,10165.395,446,147,474,30712
2.966674,74,1570,259,-202,219,-394,234.447,12798.271,-1350.616,10137.088
2.986663,99,1423,143,-236,284,-480,245.627,12828.071,-1247.471,10112.345
3.006652,124,1372,-5,-188,317,-537,253.917,12849.948,-1132.770,10097.853,449,149,464
3.026642,189,1362,59,-80,385,-564,258.309,12851.403,-1011.074,10108.802
3.046997,166,1778,115,101,435,-561,252.480,12839.190,-885.957,10136.171
3.066589,170,2679,271,145,495,-528,238.947,12819.684,-757.147,10171.566
3.086609,251,2954,1356,304,559,-527,221.746,12760.931,-620.068,10254.776
3.106598,204,3524,1427,805,595,-516,208.360,12737.432,-496.793,10290.920,443,153,472
3.126556,204,2977,974,-152,456,-473,210.964,12797.051,-406.527,10220.624
3.146942,157,2816,53,-705,186,-416,232.418,12894.081,-349.290,10099.608
3.166534,114,3411,85,-904,94,-335,235.665,12948.262,-286.103,10031.976
3.186523,367,3272,1512,-149,256,-309,233.899,12914.221,-221.863,10077.420
3.206512,229,2842,1237,372,227,-255,217.024,12938.984,-184.435,10046.741,426,143,470
3.226501,24,2544,284,-586,140,-57,214.057,13031.339,-187.132,9926.671
3.246856,-151,2396,345,-881,-59,13,219.517,13090.991,-189.997,9847.695
3.266449,-88,2220,608,-395,-18,-44,242.633,13118.755,-183.376,9810.260
3.286438,-2,1954,477,-260,-130,-146,287.804,13148.141,-181.978,9769.640
3.306427,-21,1682,359,-289,-244,-169,341.194,13171.894,-190.510,9735.704,425,142,478
3.326416,-75,1662,340,-204,-281,-137,391.983,13184.146,-202.872,9716.940
3.346801,-103,1676,705,-86,-274,-111,439.685,13178.579,-216.179,9722.162
3.366394,-123,1604,944,87,-257,-91,483.366,13177.783,-229.343,9720.865
3.386383,-125,1573,763,-81,-248,-87,526.153,13208.499,-243.365,9676.514
3.406372,-119,1510,578,-409,-235,-92,565.908,13257.137,-254.004,9607.236,428,143,498
3.426361,-44,1525,487,-491,-207,-105,603.711,13306.120,-261.929,9536.746
3.446746,-36,1564,395,-466,-195,-110,633.987,13344.790,-267.637,9480.424,428,143,498,30703
3.466339,-2,1563,357,-355,-138,-80,655.549,13368.772,-272.652,9444.961
3.486328,6,1548,413,-198,-103,-48,668.732,13376.569,-277.952,9432.835
3.506317,-13,1630,507,-18,-67,-15,675.561,13370.077,-284.023,9441.368,420,132,492
3.526367,-14,1634,568,85,-48,15,678.793,13357.864,-291.299,9458.186
3.546661,-51,1645,558,123,-45,27,681.704,13343.779,-298.312,9477.620
3.566253,-96,1585,472,149,-37,22,687.933,13327.260,-304.018,9500.205
3.586242,-62,1496,328,158,-53,3,696.827,13306.789,-305.016,9528.179
3.606231,-102,2144,119,230,-43,-28,707.002,13278.296,-300.198,9567.252,421,134,498
3.626220,83,3253,437,288,-30,-59,716.396,13223.744,-275.725,9642.551
3.646576,-48,2939,2304,906,11,-167,740.493,13074.881,-250.132,9842.358
3.666198,192,2395,673,1052,-137,-142,780.753,13083.497,-253.145,9827.710
3.686157,411,2981,-746,-572,-204,-123,813.608,13131.608,-270.080,9760.195
3.706176,445,3053,1193,-235,-188,-44,827.850,13028.919,-287.701,9895.180,411,139,493
3.726135,201,2878,2383,1593,-105,134,835.871,12893.901,-332.115,10068.454
3.746521,164,2573,969,796,-336,260,868.075,12917.247,-422.010,10032.373
3.766113,129,2069,392,-587,-498,262,900.854,12971.843,-515.630,9954.361
3.786102,123,1860,200,-447,-455,266,931.529,12989.870,-601.732,9923.149
3.806091,114,1866,5,-146,-426,260,957.850,12976.844,-682.770,9932.437,405,142,476
3.826080,79,1823,241,202,-397,284,980.692,12916.941,-759.073,10002.505
3.846466,125,1755,389,621,-353,306,1000.739,12834.690,-831.571,10100.157
3.866058,210,1700,352,726,-352,308,1020.373,12747.624,-907.283,10201.431
3.886047,293,1725,512,760,-370,334,1037.885,12653.472,-991.941,10308.439
3.906036,372,1672,713,787,-381,398,1048.243,12563.116,-1090.473,10407.478,399,146,479
3.926025,365,1634,778,700,-418,483,1048.673,12493.022,-1206.373,10478.778
3.946380,346,1604,687,432,-430,575,1041.829,12451.830,-1338.748,10512.360,399,146,479,30724
3.965973,306,1632,607,171,-484,643,1032.697,12430.922,-1485.291,10518.320
3.985962,323,1683,665,21,-514,685,1024.086,12419.014,-1638.922,10510.409
4.005951,386,1830,693,-88,-552,693,1017.353,12419.886,-1797.437,10484.086,404,155,470
4.025940,380,1895,699,-197,-583,692,1012.220,12427.644,-1960.987,10446.006
4.046325,332,1828,541,-266,-616,703,1007.256,12441.194,-2127.163,10397.727
4.065918,320,1714,453,-332,-600,700,996.782,12454.224,-2283.470,10349.876
4.085907,394,1665,346,-289,-525,671,981.897,12456.768,-2424.719,10316.054
4.105896,380,1681,389,-167,-440,635,960.042,12442.295,-2550.009,10305.363,422,162,448
4.125854,333,1859,540,13,-336,615,935.906,12413.686,-2659.938,10314.292
4.146240,338,1972,753,107,-271,566,916.038,12380.516,-2756.222,10330.651
4.165832,421,2128,754,175,-252,493,904.591,12357.813,-2841.293,10335.795
4.185821,518,2140,713,26,-272,395,902.562,12348.859,-2921.606,10324.278
4.205810,531,2121,526,-78,-311,336,905.061,12349.595,-3003.063,10299.778,431,168,451
4.225799,477,2197,409,-146,-339,319,911.823,12345.014,-3082.494,10281.190
4.246185,357,2327,553,-38,-341,300,930.002,12324.454,-3154.929,10282.256
4.265777,255,2413,655,134,-344,243,959.379,12299.374,-3215.120,10290.939
4.285766,181,2402,736,133,-335,148,996.929,12282.343,-3258.363,10294.109
4.305725,152,2159,715,102,-302,36,1039.581,12274.569,-3283.133,10291.292,440,175,444
4.325714,178,1933,556,21,-253,-70,1076.995,12282.556,-3288.239,10276.275
4.346100,241,1766,501,-67,-152,-148,1103.374,12292.643,-3275.363,10265.521
4.365722,212,1696,567,-24,-21,-164,1114.032,12300.754,-3247.411,10263.534
4.385681,224,1687,620,-4,89,-167,1111.799,12313.451,-3210.964,10260.018
4.405670,269,1751,575,-67,164,-164,1100.799,12334.890,-3171.529,10247.711,451,166,443
4.425659,252,1709,627,-136,195,-158,1085.579,12356.352,-3132.432,10235.496
4.446014,192,1617,612,-133,197,-141,1068.147,12379.518,-3093.885,10221.052,451,166,443,30722
4.465637,155,1661,465,-148,210,-139,1052.358,12407.033,-3050.118,10202.464
4.485656,144,1646,587,-174,221,-190,1043.888,12428.455,-2996.521,10193.139
4.505615,249,1829,538,-60,230,-248,1040.535,12450.945,-2935.313,10183.841,450,170,447
4.525604,313,1914,623,-125,235,-296,1038.656,12471.793,-2871.597,10176.686
4.545959,300,1824,726,-35,224,-289,1038.950,12484.778,-2815.918,10176.293
4.565551,284,1803,669,-26,193,-247,1036.440,12505.678,-2767.290,10164.219
4.585571,239,1813,655,-150,166,-230,1035.185,12533.238,-2722.594,10142.448
4.605529,183,1763,670,-173,144,-230,1038.741,12561.323,-2681.414,10118.282,448,160,454
4.625518,162,1683,614,-183,98,-235,1050.643,12592.394,-2643.583,10088.343
4.645904,215,1733,628,-221,43,-258,1071.330,12624.523,-2607.548,10055.337
4.665496,263,1764,673,-206,1,-281,1097.878,12654.549,-2575.780,10022.866
4.685486,265,1718,726,-217,-41,-272,1126.061,12685.225,-2552.670,9986.809
4.705475,230,1701,575,-229,-76,-232,1151.510,12718.612,-2537.610,9945.194,433,163,451
4.725433,167,1692,608,-278,-86,-197,1175.342,12749.521,-2524.107,9906.190
4.745880,232,1800,669,-229,-78,-186,1196.139,12777.270,-2507.224,9872.177
4.765442,294,1799,591,-202,-48,-186,1210.913,12804.348,-2493.512,9838.709
4.785400,325,1757,511,-266,-28,-135,1218.154,12833.119,-2489.317,9801.321
4.805420,344,1808,423,-221,-58,-67,1225.312,12849.090,-2496.686,9777.602,429,162,462
4.825378,360,1844,554,-118,-78,0,1229.482,12847.448,-2511.342,9775.482
4.845733,353,1874,583,39,-76,64,1230.947,12837.665,-2533.065,9782.543
4.865356,342,1886,593,55,-82,110,1228.553,12829.601,-2558.926,9786.691
4.885345,359,1898,548,19,-83,130,1227.567,12825.121,-2587.711,9785.118
4.905334,323,1863,577,-11,-108,123,1228.838,12820.370,-2615.159,9783.887,427,159,469
4.925323,373,1891,616,0,-101,106,1229.664,12818.063,-2636.452,9781.091
4.945678,377,1775,625,-25,-66,75,1229.377,12819.297,-2653.237,9774.970,427,159,469,30687
4.965301,404,1758,462,-66,-62,58,1226.379,12828.275,-2668.571,9759.381
4.985290,438,1718,361,-110,-50,53,1221.291,12830.655,-2681.026,9753.474
5.005249,375,1729,372,-12,-20,60,1215.508,12820.992,-2691.002,9764.151,425,157,469
5.025238,315,1686,347,114,6,67,1209.482,12798.597,-2693.154,9793.641
5.045623,362,1636,255,244,44,44,1211.592,12767.087,-2689.453,9835.437
5.065216,414,1605,189,323,20,2,1220.559,12724.384,-2683.494,9891.136
5.085205,438,1638,165,437,8,-5,1228.816,12671.320,-2678.629,9959.320
5.105194,417,1664,186,510,24,31,1234.568,12610.516,-2677.011,10035.924,423,143,472
5.125183,399,1671,290,550,13,60,1246.195,12560.146,-2684.507,10095.473
5.145538,326,1739,115,328,-114,37,1261.565,12530.030,-2701.843,10126.317
5.165161,207,1688,344,217,-130,55,1277.300,12503.150,-2717.771,10153.270
5.185150,403,1823,221,204,-82,44,1288.574,12489.528,-2728.538,10165.716
5.205108,369,1795,220,33,-93,0,1297.471,12483.970,-2738.891,10168.627,432,152,467
5.225128,341,1873,125,46,-72,14,1305.291,12481.711,-2750.065,10167.382
5.245483,319,1875,316,-50,-87,15,1310.403,12482.777,-2759.240,10162.931
5.265075,306,1955,257,-45,-60,7,1315.169,12493.443,-2766.543,10147.210
5.285064,307,1998,244,-146,-55,-17,1321.693,12507.354,-2767.726,10128.886
5.305053,470,2051,265,-117,-59,-62,1328.204,12515.337,-2768.718,10117.897,421,163,454
5.325042,502,2144,145,-54,-7,-3,1327.969,12514.033,-2770.468,10119.062
5.345398,563,2232,145,43,-36,-3,1324.975,12504.957,-2780.073,10128.036
5.365020,562,2257,171,30,-13,70,1317.276,12485.666,-2799.309,10147.523
5.385009,538,2355,108,191,-31,154,1310.784,12456.992,-2828.102,10175.582
5.404968,616,2387,-83,171,-70,185,1308.392,12424.609,-2863.675,10205.488,435,160,449
5.424957,707,2438,-86,245,-136,201,1313.440,12374.716,-2908.178,10252.767
5.445343,701,2541,132,402,-173,255,1317.576,12311.236,-2963.006,10312.782,435,160,449,30712
5.464935,611,2548,49,406,-229,310,1324.089,12257.057,-3031.357,10356.527
5.484924,736,2654,-61,326,-274,341,1333.417,12205.587,-3105.729,10394.013
5.504913,783,2604,-83,288,-310,342,1340.932,12144.703,-3181.818,10441.243,428,160,451
5.524902,775,2540,-237,383,-297,368,1344.751,12080.394,-3258.788,10491.494
5.545257,624,2572,-254,404,-261,396,1346.270,12009.062,-3332.301,10549.937
5.564880,706,2650,-252,449,-286,374,1358.491,11939.986,-3400.744,10604.792
5.584869,812,2692,-156,421,-240,330,1356.565,11883.369,-3451.957,10651.980
5.604828,842,2704,-188,312,-120,282,1343.282,11836.403,-3495.602,10691.648,439,164,450
5.624847,840,2624,-249,265,-92,300,1327.908,11792.119,-3541.020,10727.498
5.645202,837,2575,-179,261,-90,291,1317.560,11744.631,-3581.536,10767.345
5.664795,828,2462,-99,288,-89,258,1311.304,11698.628,-3623.999,10803.918
5.684784,776,2395,-166,226,-145,251,1306.032,11657.609,-3671.187,10832.925
5.704773,837,2435,-194,246,-122,268,1293.005,11617.293,-3719.346,10861.332,440,177,428
5.724762,764,2312,-196,182,-117,312,1274.422,11583.249,-3772.330,10881.596
5.745147,620,1949,537,124,-129,325,1257.565,11560.905,-3827.049,10888.211
5.764740,795,2144,-236,-24,-181,299,1248.861,11573.065,-3893.509,10852.674
5.784729,708,1900,126,61,-152,304,1232.244,11546.168,-3942.489,10865.532
5.804687,802,2073,-168,77,-158,284,1222.590,11531.247,-3998.329,10862.063,451,171,417
5.824707,651,2103,-236,-9,-150,269,1198.985,11519.380,-4040.230,10861.782
5.845062,635,1901,159,-106,-101,238,1171.287,11518.421,-4076.364,10852.316
5.864685,801,2108,-329,-64,-2,253,1144.269,11527.415,-4114.058,10831.403
5.884643,577,1675,227,-112,-9,243,1102.424,11506.147,-4150.097,10844.600
5.904632,714,1926,-237,7,55,340,1076.825,11542.068,-4184.194,10795.789,445,177,421
5.924621,614,1842,-136,-572,-145,99,1031.726,11576.105,-4198.631,10758.079
5.945007,630,1746,100,-338,82,132,981.304,11599.268,-4193.385,10739.877,445,177,421,30724
5.964660,753,1958,-528,-265,197,145,926.910,11633.193,-4176.835,10714.435
5.984588,470,1773,-358,-449,122,-13,880.263,11666.324,-4150.529,10692.547
6.004577,601,1570,98,-376,321,-8,836.072,11696.916,-4110.607,10678.084,467,177,409
6.024566,149,1525,126,-268,410,-55,805.946,11740.584,-4071.046,10647.589
6.044922,1053,1757,132,-285,328,-55,796.630,11775.393,-4021.309,10628.735
6.064514,1043,1676,202,-203,-8,-301,785.481,11807.353,-3971.184,10612.943
6.084503,687,1606,202,-166,213,-246,752.768,11846.757,-3933.210,10585.508
6.104492,918,1632,441,-371,246,-113,768.325,11876.672,-3902.129,10562.346,471,171,427
6.124481,533,1821,-134,-38,-279,-338,768.174,11911.778,-3872.753,10533.596
6.144867,12,1800,-278,-323,136,-182,788.118,11940.940,-3853.251,10506.222
6.164459,546,1744,284,-339,-37,-119,803.814,11965.115,-3839.068,10482.695
6.184448,609,1714,295,-238,-12,-88,827.276,11993.894,-3840.097,10447.545
6.204437,579,1713,205,-224,-195,-120,847.518,12020.318,-3858.271,10408.786,469,180,433
6.224426,653,1773,203,-222,-236,-23,864.880,12038.872,-3890.314,10373.931
6.244781,643,1735,301,-181,-250,47,871.265,12050.309,-3938.864,10341.746
6.264373,466,1596,260,-193,-266,161,868.147,12056.869,-4000.362,10310.711
6.284362,583,1647,149,-141,-257,253,858.314,12063.081,-4065.921,10278.574
6.304351,565,1677,169,-228,-233,304,847.076,12065.316,-4131.891,10250.537,472,165,449
6.324340,553,1718,111,-148,-224,306,828.811,12066.522,-4197.294,10224.005
6.344696,541,1673,239,-203,-186,331,807.177,12066.774,-4258.165,10200.239
6.364319,658,1615,129,-147,-159,315,786.793,12067.415,-4314.457,10177.393
6.384308,612,1726,258,-139,-151,280,769.442,12063.599,-4367.389,10160.653
6.404297,663,1754,284,-152,-149,282,750.625,12065.559,-4418.873,10137.448,461,169,453
6.424286,706,1778,264,-147,-146,262,731.345,12070.817,-4468.718,10110.712
6.444641,733,1754,274,-204,-133,253,710.639,12077.753,-4516.793,10082.504,461,169,453,30744
6.464233,720,1736,285,-199,-124,253,688.223,12084.872,-4562.366,10054.973
6.484222,704,1774,297,-188,-113,244,667.179,12090.496,-4606.177,10029.623
6.504211,702,1722,268,-186,-107,229,648.102,12094.587,-4645.217,10007.912,460,160,451
6.524200,722,1737,282,-126,-74,205,630.369,12094.926,-4675.909,9994.334
6.544555,780,1785,252,-96,-45,163,614.573,12091.372,-4697.367,9989.554
6.564178,807,1807,299,-29,-16,134,599.002,12081.749,-4712.595,9994.970
6.584167,835,1884,293,49,35,125,580.710,12069.070,-4721.856,10006.989
6.604156,902,1882,322,58,64,119,561.851,12052.252,-4730.782,10024.105,479,153,461
6.624145,890,1889,244,93,69,128,540.006,12035.769,-4740.290,10040.604
6.644500,857,1869,215,78,88,136,517.327,12015.814,-4747.264,10062.380
6.664123,932,1872,212,128,108,132,496.900,11992.986,-4750.007,10089.313
6.684082,961,1884,136,172,110,110,478.118,11967.386,-4748.600,10121.231
6.704101,924,1918,140,190,121,88,464.754,11937.205,-4743.815,10159.665,478,162,469
6.724060,941,1939,123,244,126,61,457.241,11905.799,-4734.575,10201.084
6.744445,1006,1950,131,269,123,20,457.338,11874.369,-4724.100,10242.485
6.764038,1007,1956,184,276,86,-5,460.645,11844.585,-4713.319,10281.715
6.784027,991,1921,166,256,67,-19,465.293,11818.354,-4704.154,10315.832
6.804016,942,1944,94,209,50,-20,469.439,11799.997,-4696.212,10340.247,486,163,461
6.824005,923,1939,137,135,40,-34,476.715,11786.015,-4684.795,10361.018
6.844360,916,1912,101,128,38,-73,489.327,11776.638,-4670.451,10377.557
6.863983,922,1914,160,112,14,-109,505.656,11771.220,-4654.301,10390.169
6.883941,853,1936,86,80,-5,-134,522.532,11769.248,-4637.271,10399.178
6.903930,803,1919,94,40,4,-142,539.303,11770.145,-4616.112,10406.718,491,158,454
6.923919,824,1920,185,44,17,-168,558.361,11774.173,-4590.845,10412.331
6.944305,823,1931,104,11,11,-199,577.037,11783.893,-4563.292,10412.429,491,158,454,30699
6.963897,824,1883,128,-24,19,-210,596.791,11793.057,-4534.804,10413.387
6.983886,826,1875,145,17,25,-213,616.637,11801.972,-4507.306,10414.069
7.003875,838,1847,132,11,19,-206,635.382,11809.701,-4481.777,10415.199,497,162,450
7.023864,825,1868,112,0,12,-188,650.609,11816.761,-4459.387,10415.861
7.044250,854,1869,145,-25,5,-164,662.670,11822.603,-4441.029,10416.315
7.063812,838,1856,170,-2,6,-128,671.422,11825.125,-4426.358,10419.137
7.083831,869,1948,152,16,20,-97,675.603,11826.547,-4414.130,10422.438
7.103790,900,2020,221,-4,26,-70,675.029,11825.662,-4404.515,10427.547,480,174,438
7.123779,925,2043,272,2,44,-38,669.169,11825.676,-4398.629,10430.392
7.144134,889,2067,292,0,58,-2,656.828,11827.914,-4394.304,10430.462
7.163757,882,2094,281,-33,68,16,642.057,11833.191,-4389.607,10427.374
7.183807,867,2037,282,-70,85,14,625.514,11842.907,-4381.084,10420.931
7.203735,864,2034,239,-87,94,-7,610.258,11857.327,-4368.856,10410.567,478,166,443
7.223724,874,2022,163,-136,92,-42,597.904,11873.799,-4352.409,10399.393
7.244079,883,2046,175,-134,90,-74,591.909,11889.507,-4332.178,10390.232
7.263702,829,2047,234,-103,83,-109,592.209,11900.553,-4308.746,10387.313
7.283691,809,2040,265,-37,74,-134,597.012,11910.507,-4283.412,10386.106
7.303650,870,2034,259,-30,60,-154,605.745,11920.663,-4258.472,10384.205,478,166,438
7.323669,819,2010,220,-15,41,-158,614.637,11929.295,-4237.823,10382.217
7.344024,801,2019,159,-29,26,-134,622.617,11935.915,-4220.200,10381.311
7.363617,819,2004,179,-6,19,-119,633.387,11937.383,-4204.936,10385.164
7.383606,865,2013,166,30,2,-110,646.417,11933.735,-4194.234,10392.879
7.403595,859,2015,223,65,-18,-86,659.750,11924.311,-4190.720,10404.270,484,170,449
7.443939,830,2014,265,101,-40,-43,672.232,11912.059,-4195.296,10415.656
7.444275,829,1994,227,114,-64,-4,684.022,11899.277,-4206.461,10424.991
7.463531,812,2023,276,90,-86,22,695.051,11888.392,-4221.518,10430.592,484,170,449,30728
7.483520,822,1996,253,69,-96,36,704.968,11879.816,-4240.903,10431.835
7.503540,830,1927,216,33,-114,56,710.753,11874.539,-4263.233,10428.347,473,171,445
7.523498,773,1896,189,-7,-110,75,715.147,11870.713,-4286.417,10422.898
7.543884,740,1884,198,-29,-109,70,720.457,11868.337,-4306.291,10417.044
7.563476,752,1827,172,-34,-105,45,726.864,11868.408,-4321.678,10410.143
7.583465,762,1807,137,-43,-94,19,734.631,11869.840,-4333.020,10403.249
7.603454,763,1789,228,-51,-96,-5,744.106,11870.695,-4340.208,10398.603,472,168,454
7.623443,735,1818,286,-26,-81,-26,753.855,11873.069,-4344.605,10393.353
7.643798,686,1774,279,-20,-67,-38,763.813,11877.622,-4345.902,10386.879
7.663421,671,1758,274,-50,-56,-58,775.047,11887.071,-4342.789,10376.534
7.683471,690,1747,239,-64,-53,-93,788.168,11900.362,-4335.200,10363.477
7.703369,679,1735,229,-86,-49,-124,804.070,11914.270,-4324.536,10350.722,472,168,444
7.723358,697,1711,187,-64,-46,-140,821.335,11927.525,-4313.013,10338.902
7.743744,724,1713,170,-66,-53,-141,838.710,11936.503,-4302.496,10331.526
7.763366,665,1638,126,-47,-45,-129,855.079,11942.320,-4293.143,10327.351
7.783325,618,1614,123,-22,-32,-115,871.196,11945.367,-4283.050,10326.672
7.803314,593,1581,162,18,-29,-115,888.607,11942.725,-4269.573,10333.822
7.823303,613,1570,133,81,-19,-125,907.282,11935.525,-4251.751,10347.857,477,158,442
7.843658,626,1657,185,139,6,-138,925.213,11924.552,-4229.697,10367.938
7.863281,621,1659,165,154,44,-147,941.359,11914.597,-4203.562,10388.538
7.883270,606,1695,172,156,66,-159,956.370,11905.241,-4174.328,10409.660
7.903259,631,1694,172,141,66,-167,969.380,11897.733,-4144.298,10429.022
7.923248,583,1693,187,124,86,-162,980.548,11891.750,-4114.926,10446.417,465,165,456
7.943603,601,1724,211,95,86,-155,989.751,11890.303,-4086.528,10458.337
7.963195,640,1786,165,67,77,-154,996.331,11893.255,-4059.605,10464.838,465,165,456,30712
7.983215,614,1792,181,6,82,-143,999.706,11900.318,-4035.283,10465.894
8.003173,593,1783,240,-37,76,-127,1000.797,11911.315,-4014.047,10461.445
8.023163,595,1728,132,-60,59,-111,1000.429,11924.755,-3996.392,10452.925,472,170,451
8.043518,556,1711,76,-91,54,-98,1000.031,11938.445,-3981.363,10443.067
8.063141,638,1765,71,-87,43,-90,1001.441,11948.800,-3967.032,10436.541
8.083130,644,1789,142,-50,37,-90,1004.343,11950.780,-3954.054,10438.919
8.103119,661,1813,207,26,22,-69,1006.424,11947.445,-3944.468,10446.160
8.123108,690,1894,242,58,30,-41,1004.717,11942.791,-3938.829,10453.772,450,160,437
8.143463,657,1931,233,27,24,-10,998.807,11942.764,-3936.138,10455.382
8.163086,587,1889,180,-35,35,2,991.243,11948.279,-3934.396,10450.455
8.183044,623,1904,156,-60,29,-3,985.205,11953.567,-3929.354,10446.876
8.203033,666,1919,91,-46,41,-26,981.955,11957.428,-3919.976,10446.286
8.223022,615,1939,147,-4,43,-51,981.947,11955.531,-3905.602,10453.840,462,163,447
8.243377,664,2020,171,47,69,-69,982.991,11948.917,-3886.653,10468.355
8.263000,655,2049,285,97,88,-82,981.000,11941.564,-3862.100,10486.005
8.282989,650,2061,222,103,132,-93,974.667,11941.181,-3833.097,10497.668
8.302978,639,2059,199,24,156,-107,964.669,11945.229,-3801.136,10505.604
8.322967,628,2060,153,-25,166,-107,950.621,11953.209,-3765.092,10510.787,469,160,447
8.343322,618,2084,195,-7,197,-120,936.519,11960.787,-3725.028,10517.704
8.362915,617,2151,205,-12,223,-139,921.477,11967.995,-3678.420,10527.233
8.382934,597,2238,235,1,264,-164,904.946,11977.585,-3625.089,10536.255
8.402954,642,2162,251,-35,287,-189,885.580,11993.407,-3568.120,10539.349
8.422882,679,2168,185,-76,311,-194,861.767,12011.970,-3512.233,10538.956,454,166,445
8.443267,729,2134,88,-84,306,-169,833.901,12027.858,-3460.021,10540.347
8.462860,713,2127,12,-79,301,-134,804.643,12036.355,-3412.513,10548.407,454,166,445,30724
8.482849,731,2221,153,-27,298,-104,778.544,12034.764,-3371.091,10565.486
8.502838,742,2209,174,78,262,-73,754.107,12028.717,-3337.770,10584.707
8.522827,731,2292,224,67,225,-40,731.000,12022.782,-3314.468,10600.382,463,174,441
8.543182,664,2288,237,34,183,-4,709.730,12020.972,-3298.569,10608.835
8.562774,681,2258,299,6,137,9,692.990,12023.831,-3288.575,10609.805
8.582794,667,2214,227,-52,94,8,677.176,12033.095,-3283.307,10601.952
8.602752,702,2136,134,-101,68,17,662.511,12047.267,-3282.351,10587.069
8.622741,693,2097,66,-135,38,23,650.311,12056.640,-3284.618,10576.447,456,166,457
8.643127,673,1996,-21,-111,16,33,641.851,12059.220,-3289.732,10572.433
8.662719,638,1948,36,-16,1,40,635.890,12049.363,-3293.287,10582.919
8.682708,620,1947,80,114,23,39,635.178,12029.074,-3294.253,10605.718
8.702697,630,2034,170,178,11,15,637.743,12005.288,-3291.267,10633.407
8.722686,662,2056,183,203,35,-6,638.699,11985.555,-3284.349,10657.720,465,177,442
8.743042,599,2014,229,139,48,-18,635.121,11972.617,-3274.698,10675.432
8.762664,633,2071,182,103,72,-20,627.582,11969.719,-3260.905,10683.346
8.782653,650,2026,251,-12,90,-43,619.415,11975.764,-3245.201,10681.831
8.802642,647,2062,131,-41,89,-55,607.675,11987.094,-3226.979,10675.315
8.822631,592,2021,208,-94,111,-59,597.613,11998.956,-3207.547,10668.411,465,170,449
8.842987,537,1958,241,-106,116,-70,587.965,12016.501,-3184.331,10656.147
8.862579,516,1921,208,-145,122,-104,580.053,12044.042,-3155.695,10633.984
8.882568,543,1915,150,-230,116,-150,579.226,12077.466,-3123.859,10605.481
8.902557,575,1848,150,-241,82,-193,584.798,12108.522,-3092.335,10578.969
8.922546,543,1864,104,-199,52,-205,595.843,12133.252,-3063.670,10558.339,461,169,443
8.942901,501,1932,174,-164,33,-201,610.888,12150.673,-3037.285,10545.060
8.962494,486,1966,288,-78,18,-198,628.450,12161.637,-3011.559,10538.766,461,169,443,30724
8.982513,534,2001,329,-31,13,-190,646.739,12172.853,-2989.972,10530.854
9.002502,588,1963,269,-71,-3,-169,660.495,12185.377,-2975.597,10519.581
9.022491,574,1924,299,-87,-17,-113,665.688,12196.691,-2971.316,10507.345,456,171,443
9.042846,588,1938,244,-82,-15,-34,662.720,12205.427,-2977.257,10495.701
9.062439,537,1883,194,-80,-13,42,652.201,12207.163,-2989.033,10490.992
9.082428,532,1880,79,-36,-12,92,640.315,12203.753,-3005.700,10490.929
9.102417,504,1874,92,13,-13,113,632.554,12188.807,-3023.140,10503.757
9.122406,520,1871,203,118,-32,110,632.145,12163.487,-3038.754,10528.599,462,172,447
9.142761,503,1903,247,217,-43,82,637.276,12135.609,-3053.395,10556.187
9.162384,463,1895,228,206,-59,64,645.964,12110.193,-3065.495,10581.310
9.182373,494,1918,148,199,-57,33,659.503,12089.156,-3073.879,10602.078
9.202331,501,1888,165,162,-79,-7,674.265,12069.180,-3078.091,10622.666
9.222351,538,1899,132,166,-53,-24,688.739,12051.591,-3080.650,10640.950,448,158,458
9.242706,547,1898,206,140,-60,-29,700.595,12035.069,-3081.574,10658.593
9.262298,524,1953,133,136,-36,-28,709.294,12021.525,-3080.273,10673.668
9.282287,531,1980,218,114,-11,-31,717.890,12009.074,-3075.463,10688.486
9.302276,527,1960,205,105,-1,-51,725.778,12003.978,-3068.738,10695.608
9.322265,524,1979,205,37,4,-61,731.723,12004.953,-3060.652,10696.426,454,166,450
9.342651,528,1999,177,-4,4,-64,734.177,12011.821,-3052.025,10691.010
9.362243,519,2001,142,-71,21,-63,733.786,12022.185,-3041.677,10682.334
9.382232,480,2043,157,-81,43,-61,731.242,12032.849,-3028.483,10674.248
9.402221,459,2030,206,-73,61,-69,729.629,12042.777,-3012.473,10667.689
9.422180,474,2033,190,-82,61,-84,726.685,12055.208,-2994.118,10659.014,458,179,445
9.442566,489,2044,80,-104,74,-89,724.836,12069.779,-2976.189,10647.666
9.462158,600,2011,84,-112,58,-94,725.659,12078.522,-2960.836,10641.973,458,179,445,30718
9.482147,598,1987,76,-29,43,-76,725.116,12079.909,-2951.568,10643.011
9.502136,572,1999,132,16,23,-30,725.381,12073.920,-2950.985,10649.948
9.522125,606,1955,165,54,-8,9,726.920,12064.083,-2959.654,10658.582,461,171,438
9.542511,578,1913,74,80,-51,47,729.443,12052.280,-2977.132,10666.891
9.562103,525,1894,161,68,-90,77,736.926,12035.445,-3001.400,10678.578
9.582092,527,1883,214,116,-134,84,753.545,12018.593,-3033.730,10687.259
9.602050,533,1845,134,109,-208,83,776.105,12005.050,-3071.917,10689.957
9.622100,536,1894,148,40,-273,83,802.843,11993.487,-3116.397,10688.087,458,176,443
9.642425,549,1858,144,52,-302,95,828.731,11981.143,-3165.260,10685.597
9.662017,465,1865,152,44,-300,121,850.943,11967.228,-3216.177,10684.240
9.682006,459,1868,205,36,-264,143,869.344,11954.919,-3261.741,10682.725
9.701996,388,1850,179,25,-243,117,889.049,11945.539,-3298.824,10680.210
9.721985,433,1780,207,33,-222,70,907.643,11937.331,-3326.948,10679.099,462,165,451
9.742370,488,1778,144,33,-176,41,927.354,11931.491,-3351.483,10676.260
9.761963,545,1809,123,13,-193,22,947.139,11927.992,-3375.326,10670.921
9.781952,534,1848,246,-25,-164,22,963.112,11927.620,-3399.690,10662.168
9.801941,415,1893,130,-49,-162,42,975.563,11930.296,-3423.247,10650.498
9.821899,465,1853,277,-66,-182,20,996.456,11931.930,-3445.561,10639.533,462,168,440
9.842285,592,1827,215,-57,-184,-9,1018.523,11941.866,-3465.042,10619.951
9.861908,569,1818,166,-113,-193,-34,1039.507,11956.434,-3486.769,10594.384
9.881866,522,1905,247,-177,-200,-19,1060.676,11970.118,-3510.489,10568.970
9.901855,532,1932,292,-119,-219,-14,1086.273,11982.029,-3539.167,10543.278
9.921844,571,1929,209,-147,-248,-2,1110.501,11995.914,-3572.977,10513.520,460,165,444
9.942199,531,1953,256,-160,-259,29,1135.825,12005.020,-3612.289,10486.954
9.961822,538,1962,385,-116,-292,49,1163.495,12008.816,-3653.967,10465.112,460,165,444,30730
9.981811,508,1962,352,-76,-314,53,1195.288,12015.558,-3700.362,10437.453
10.001800,536,1998,230,-138,-346,49,1228.121,12024.156,-3748.233,10406.611
10.021759,479,1981,308,-137,-341,51,1256.580,12027.748,-3789.975,10383.920,458,162,441
10.042144,570,2054,221,-81,-291,48,1283.725,12028.402,-3826.825,10366.313
10.061767,614,2048,369,-21,-254,44,1309.415,12015.094,-3858.962,10366.619
10.081726,609,2132,360,87,-227,61,1326.107,11999.275,-3889.026,10371.584
10.101745,623,2142,379,98,-159,89,1335.341,11981.971,-3915.393,10380.480
10.121704,588,2160,449,65,-123,97,1341.057,11969.569,-3938.908,10385.154,454,169,443
10.142090,546,2150,340,57,-104,82,1347.287,11964.631,-3958.780,10382.481
10.161682,636,2166,267,-11,-103,42,1359.429,11960.482,-3973.157,10380.186
10.181671,584,2177,255,23,-109,-5,1377.623,11952.469,-3982.792,10383.325
10.201660,611,2199,248,65,-122,-28,1397.698,11938.899,-3984.636,10395.539
10.221649,506,2172,256,147,-73,-60,1422.282,11922.208,-3978.681,10413.625,443,165,456
10.242004,511,2163,220,177,-75,-108,1456.554,11903.223,-3967.460,10434.866
10.261627,547,2139,146,233,-77,-154,1495.691,11879.425,-3950.841,10462.718
10.281585,562,2197,134,267,-70,-177,1535.618,11851.298,-3931.234,10496.163
10.301574,573,2227,158,303,-68,-176,1571.291,11817.602,-3911.034,10536.345
10.321563,608,2270,277,375,-29,-143,1600.295,11776.957,-3890.683,10584.911,441,164,455
10.341949,632,2204,231,357,-12,-105,1619.928,11746.215,-3875.538,10621.577
10.361541,527,2129,179,265,2,-71,1634.383,11722.266,-3864.712,10649.727
10.381530,599,2154,156,210,-11,-54,1650.947,11699.824,-3858.455,10674.093
10.401519,576,2174,148,191,-32,-52,1668.153,11679.240,-3856.130,10694.780
10.421508,568,2142,229,173,-37,-42,1685.955,11659.087,-3856.866,10713.694,443,177,437
10.441864,586,2123,180,153,-65,-24,1698.677,11645.127,-3860.665,10725.493
10.461456,542,2089,171,76,-54,-12,1708.045,11635.554,-3865.808,10732.541,443,177,437,30706
10.481475,498,2083,56,78,-38,-7,1716.375,11627.651,-3868.951,10738.642
10.501434,550,2007,161,32,-42,-19,1726.600,11618.168,-3868.619,10747.382
10.521454,566,1949,27,76,-48,-37,1739.123,11607.125,-3868.083,10757.483,443,165,435
10.541809,578,1982,83,107,-59,-41,1755.391,11589.439,-3868.435,10773.771
10.561401,551,2056,143,164,-59,-39,1774.104,11568.660,-3869.607,10792.601
10.581390,472,1995,180,210,-80,-39,1794.497,11546.530,-3869.495,10812.949
10.601379,504,2019,224,180,-66,-48,1814.607,11530.994,-3867.798,10826.770
10.621368,489,2050,203,112,-78,-64,1831.909,11524.554,-3866.862,10831.047,439,183,429
10.641723,507,1989,208,27,-48,-65,1845.041,11526.032,-3865.099,10827.873
10.661346,478,1949,181,-33,-44,-69,1852.138,11534.241,-3860.301,10819.629
10.681335,494,1897,168,-38,0,-72,1858.271,11545.182,-3854.885,10808.833
10.701294,520,1870,108,-67,-2,-72,1862.748,11556.292,-3849.085,10798.252
10.721283,487,1872,63,-78,-13,-71,1868.663,11564.759,-3844.343,10789.851,440,172,430
10.741668,583,1890,70,-74,-21,-66,1875.716,11568.514,-3837.735,10786.955
10.761261,515,1950,221,-19,0,-70,1881.562,11569.894,-3834.194,10785.716
10.781250,446,2016,339,-6,8,-45,1885.421,11574.980,-3833.993,10779.655
10.801239,458,2099,285,-75,-25,-36,1887.216,11589.793,-3834.582,10763.202
10.821228,480,2069,396,-125,-7,-51,1890.129,11606.870,-3831.288,10745.448,438,165,419
10.841674,455,2020,302,-123,-22,-64,1883.696,11633.103,-3830.702,10718.384
10.861206,379,1975,126,-258,18,-23,1868.745,11666.427,-3831.086,10684.591
10.881195,384,1961,208,-295,15,-18,1858.224,11693.798,-3828.514,10657.392
10.901153,503,1973,218,-206,38,-41,1848.952,11717.775,-3821.534,10635.151
10.921142,461,1975,198,-168,80,-46,1839.557,11735.196,-3816.346,10619.423,435,175,421
10.941528,495,1952,229,-122,61,-11,1828.100,11744.745,-3816.410,10610.818
10.961120,441,1983,227,-81,29,35,1813.041,11749.966,-3820.418,10606.178,435,175,421,30750
10.981109,557,1982,241,-52,30,64,1797.403,11749.824,-3825.418,10607.195
11.001098,544,1956,211,-13,47,75,1782.331,11747.325,-3834.179,10609.342
11.021087,510,1891,262,0,16,91,1767.988,11740.966,-3846.966,10614.152,432,181,422
11.041473,492,1867,179,-2,16,119,1748.936,11738.065,-3861.329,10615.301
11.061065,468,1862,133,-34,15,126,1734.925,11734.189,-3877.814,10615.876
11.081054,461,1880,171,-13,-9,108,1724.933,11725.524,-3888.004,10623.348
11.101043,443,1909,261,50,6,69,1722.279,11716.496,-3890.696,10632.751
11.121002,481,1942,354,100,12,6,1725.011,11707.131,-3884.402,10644.917,429,169,438
11.141388,492,1987,292,81,69,-40,1723.734,11709.733,-3871.667,10646.902
11.161010,532,1971,426,-23,87,-67,1721.052,11720.865,-3856.171,10640.709
11.180969,536,1948,340,-87,70,-81,1711.866,11740.209,-3837.734,10627.522
11.200958,536,1946,189,-128,122,-85,1699.807,11762.197,-3820.959,10611.177
11.220947,503,1960,288,-161,96,-73,1689.361,11779.659,-3804.299,10599.454,432,174,434
11.241333,451,1873,309,-113,76,-68,1680.901,11791.193,-3787.905,10593.845
11.260925,534,1938,242,-39,85,-57,1672.035,11796.766,-3771.948,10594.736
11.280914,501,1961,221,8,110,-42,1665.193,11795.134,-3759.222,10602.152
11.300903,575,1954,249,40,61,-21,1659.206,11785.709,-3749.569,10616.980
11.320892,511,1918,290,90,45,2,1655.905,11772.992,-3747.756,10632.233,438,180,435
11.341247,442,1876,173,130,3,33,1655.403,11754.912,-3749.299,10651.755
11.360840,484,1937,285,180,-7,41,1661.221,11728.042,-3751.955,10679.496
11.380829,438,1942,162,252,-8,30,1672.841,11704.149,-3755.386,10702.663
11.400818,479,1962,221,156,-48,0,1689.962,11685.280,-3758.365,10719.533
11.420807,434,1918,182,149,-61,-38,1707.517,11670.493,-3756.106,10733.642,435,163,437
11.441192,419,1937,145,109,-40,-56,1722.999,11659.979,-3750.330,10744.609
11.460785,383,1903,135,94,-32,-72,1741.044,11652.550,-3744.934,10751.639,435,163,437,30750
11.480774,441,1984,143,60,-55,-84,1757.484,11649.504,-3741.088,10753.604
11.500732,471,2052,261,15,-40,-74,1768.877,11652.460,-3738.848,10749.311
11.520721,550,2016,392,-26,-27,-52,1768.126,11663.219,-3735.940,10738.772,445,177,428
11.541107,482,2068,486,-82,4,-27,1764.004,11677.288,-3738.045,10723.417
11.560699,409,2058,298,-104,-11,-3,1754.590,11694.464,-3743.566,10704.301
11.580719,501,2048,200,-161,41,25,1737.789,11714.064,-3747.229,10684.310
11.600677,472,2114,351,-199,55,29,1720.227,11732.387,-3751.825,10665.419
11.620666,492,2040,255,-168,35,50,1694.589,11756.434,-3757.660,10640.961,440,180,421
11.641052,561,2028,133,-279,48,81,1661.214,11783.827,-3766.774,10612.664
11.660644,519,2061,179,-247,68,108,1630.943,11799.418,-3781.898,10594.642
11.680633,469,2058,364,-149,43,150,1600.181,11803.211,-3799.183,10588.922
11.700622,532,2108,301,-85,72,176,1570.853,11806.958,-3819.698,10581.753
11.720611,479,2146,429,-60,37,179,1543.024,11805.466,-3841.612,10579.579,434,171,422
11.740966,609,2108,231,-27,43,192,1511.428,11804.111,-3862.987,10577.869
11.760559,717,2070,259,-69,43,203,1482.142,11798.656,-3888.810,10578.636
11.780548,628,2067,162,-10,28,218,1450.203,11787.995,-3915.487,10585.107
11.800537,578,2103,302,20,13,234,1424.440,11770.686,-3944.106,10597.234
11.820526,626,2113,148,96,-1,231,1402.418,11753.460,-3969.410,10609.836,434,171,429
11.840881,615,2031,218,43,-10,198,1384.039,11736.033,-3992.241,10622.966
11.860504,595,1991,273,71,-11,178,1370.160,11716.780,-4011.877,10638.608
11.880493,665,2027,253,150,11,154,1360.054,11697.253,-4028.457,10655.115
11.900482,592,1984,137,108,0,121,1347.327,11683.235,-4042.657,10666.728
11.920471,614,1960,192,58,5,115,1335.610,11670.313,-4055.118,10677.611,443,165,440
11.940826,709,1959,265,46,-2,110,1325.511,11659.542,-4072.116,10684.166
11.960418,637,1905,269,6,-22,121,1312.763,11653.219,-4092.944,10684.680,443,165,440,30734
11.980407,558,1886,206,4,-60,135,1300.883,11647.822,-4117.237,10682.684
12.000427,590,1869,90,-17,-62,141,1295.105,11642.235,-4142.135,10679.850
12.020385,506,1924,295,-17,-94,108,1297.555,11631.414,-4162.937,10683.255,444,166,431
12.040771,474,1953,413,66,-67,69,1305.974,11622.913,-4180.077,10684.788
12.060424,538,1929,246,18,-83,44,1312.190,11624.147,-4195.783,10676.526
12.080352,630,1910,383,-57,-84,33,1312.260,11627.599,-4206.592,10668.502
12.100341,561,1971,378,-106,-64,34,1304.114,11639.069,-4214.677,10653.792
12.120330,549,2040,385,-110,-8,35,1295.036,11653.209,-4221.573,10636.699,457,175,435
12.140686,611,2092,487,-135,15,33,1281.520,11670.200,-4223.758,10618.824
12.160308,569,2053,439,-162,19,23,1259.365,11691.418,-4223.613,10598.173
12.180267,630,1902,470,-211,85,42,1232.867,11715.629,-4223.857,10574.428
12.200287,571,1880,301,-242,69,56,1202.371,11745.374,-4227.508,10543.438
12.220245,710,1896,272,-250,76,57,1180.691,11765.269,-4232.950,10521.501,455,172,437
12.240631,627,1834,35,-161,65,53,1165.949,11776.482,-4240.434,10507.578
12.260223,656,1874,215,-87,10,48,1162.299,11770.828,-4244.434,10512.701
12.280212,592,1916,262,46,-31,23,1166.781,11759.582,-4246.184,10524.077
12.300201,598,2000,413,140,-34,-15,1182.660,11743.022,-4243.909,10541.698
12.320190,626,2093,664,142,-34,-60,1197.798,11732.213,-4235.466,10555.412,460,182,440
12.340545,628,2122,404,113,-36,-87,1208.148,11741.814,-4229.231,10546.052
12.360168,666,2111,410,-86,-26,-90,1209.852,11758.957,-4218.925,10530.874
12.380157,704,2096,298,-129,24,-85,1207.237,11783.181,-4208.142,10508.387
12.400146,613,2044,341,-202,19,-91,1206.659,11804.361,-4199.785,10488.006
12.420135,684,1947,345,-170,-1,-72,1204.455,11819.930,-4194.951,10472.648,466,166,438
12.440490,843,1989,140,-100,17,-39,1204.941,11829.876,-4199.219,10459.643
12.460083,628,2055,369,-65,-24,-5,1208.559,11824.117,-4211.272,10460.892,466,166,438,30722
12.480072,584,1978,179,60,-94,50,1216.874,11813.086,-4229.550,10465.016
12.500061,656,1933,327,85,-98,60,1231.045,11797.604,-4249.053,10472.919
12.520050,645,1913,181,69,-181,33,1244.974,11786.618,-4270.219,10475.033,462,175,444
12.540405,709,1907,272,44,-160,48,1259.535,11768.186,-4292.294,10484.990
12.560028,677,1890,266,144,-128,77,1269.820,11746.611,-4319.867,10496.612
12.580017,506,1878,308,135,-93,123,1274.338,11722.551,-4347.524,10511.533
12.600006,525,1939,218,173,-86,148,1277.314,11698.558,-4370.779,10528.244
12.619964,486,1891,344,135,-71,119,1280.714,11674.426,-4388.343,10547.294,445,163,451
12.640350,568,1941,377,136,-38,92,1277.836,11658.323,-4398.453,10561.234
12.659973,511,2009,363,82,-2,70,1267.205,11650.309,-4398.946,10571.149
12.679931,546,2015,442,58,78,48,1251.193,11648.287,-4387.940,10579.855
12.699920,577,2028,511,-26,155,11,1228.467,11656.715,-4368.130,10581.434
12.719909,588,2001,331,-17,173,-25,1201.027,11674.385,-4339.693,10576.803,460,170,442
12.740295,559,1951,145,-129,253,-56,1174.252,11695.150,-4302.022,10572.258
12.759887,588,1959,288,-135,274,-112,1153.556,11710.885,-4257.526,10575.131
12.779876,571,1984,240,-25,268,-144,1139.561,11723.735,-4208.058,10582.207
12.799835,609,2159,293,13,246,-191,1136.581,11733.077,-4153.986,10593.532
12.819824,613,2157,279,44,212,-244,1141.420,11744.216,-4095.777,10603.329,454,186,431
12.840210,615,2076,328,-11,204,-289,1151.220,11757.630,-4035.022,10610.696
12.859802,610,2047,283,20,207,-312,1156.222,11776.143,-3977.994,10611.154
12.879791,494,2017,257,-54,206,-273,1153.888,11792.980,-3925.941,10612.096
12.899780,572,2128,232,-20,217,-210,1146.641,11806.112,-3874.494,10617.187
12.919769,577,2091,342,-11,217,-198,1138.020,11815.522,-3825.289,10625.486,467,168,447
12.940124,511,2070,353,-3,224,-185,1121.669,11830.113,-3777.472,10628.096
12.959747,522,2066,413,-80,257,-156,1100.411,11848.943,-3732.591,10625.198,467,168,447,30724
12.979736,557,2076,292,-111,259,-128,1076.770,11873.807,-3691.593,10614.181
12.999694,611,2023,291,-110,226,-121,1054.607,11893.844,-3653.550,10607.133
13.019683,557,1986,235,-152,239,-101,1028.083,11916.180,-3616.376,10597.403,458,164,438
13.040069,500,1957,211,-122,213,-93,1004.357,11933.568,-3579.520,10592.625
13.059662,438,1974,194,-90,228,-99,983.924,11947.358,-3541.070,10591.920
13.079651,579,2026,384,-69,228,-113,968.231,11957.914,-3501.129,10594.732
13.099640,580,2074,465,-26,226,-127,950.567,11972.050,-3463.830,10592.627
13.119629,555,2047,420,-75,223,-109,929.858,11996.013,-3430.596,10578.160,456,174,438
13.139984,549,1925,354,-195,189,-102,909.447,12024.338,-3399.920,10557.660
13.159607,533,1900,235,-208,189,-102,886.200,12055.062,-3368.584,10534.619
13.179596,597,1915,284,-222,193,-100,867.993,12078.045,-3339.227,10519.145
13.199554,533,1920,390,-159,155,-94,846.560,12096.030,-3307.521,10510.239
13.219574,498,1925,439,-110,189,-94,830.522,12114.895,-3275.234,10499.896,460,175,444
13.239929,450,1923,435,-150,177,-121,817.338,12142.767,-3238.316,10480.168
13.259552,493,1916,464,-210,177,-169,809.996,12172.116,-3194.822,10460.020
13.279571,472,1872,392,-152,164,-220,807.470,12201.560,-3148.146,10440.045
13.299499,503,1806,348,-200,166,-245,806.726,12234.550,-3100.182,10415.819
13.319488,446,1757,140,-230,158,-257,805.540,12267.878,-3049.277,10391.709,461,157,441
13.339843,458,1745,294,-177,188,-274,813.594,12287.644,-2998.881,10382.389
13.359466,494,1824,296,-78,131,-278,822.121,12302.479,-2947.803,10378.778
13.379425,527,1871,379,-6,149,-273,832.588,12308.915,-2900.797,10383.555
13.399444,534,1875,367,8,128,-247,843.019,12316.435,-2862.142,10384.523
13.419433,415,1901,549,-45,96,-206,848.698,12325.342,-2830.039,10382.291,457,158,458
13.439788,442,1942,470,-15,85,-162,853.617,12339.980,-2805.200,10371.235
13.459381,376,1893,491,-107,52,-137,855.737,12356.592,-2785.716,10356.523,457,158,458,30745
13.479370,452,1920,449,-132,36,-113,855.395,12375.823,-2768.521,10338.183
13.499359,451,1871,378,-128,43,-101,854.413,12393.202,-2753.070,10321.558
13.519348,454,1881,494,-136,61,-86,852.113,12408.291,-2739.440,10307.236,456,159,457
13.539703,437,1972,465,-102,40,-68,847.773,12426.237,-2730.141,10288.424
13.559326,489,2054,512,-139,40,-48,843.383,12440.022,-2725.328,10273.391
13.579315,375,2091,459,-120,21,-25,837.550,12455.094,-2725.056,10255.664
13.599304,395,2166,546,-156,-2,-4,837.709,12467.589,-2728.776,10239.467
13.619293,349,2164,582,-110,-37,2,837.090,12476.771,-2734.489,10226.801,455,153,465
13.639648,478,2072,525,-84,-35,14,836.216,12486.163,-2743.051,10213.108
13.659271,507,1957,371,-109,-53,29,835.236,12494.701,-2757.999,10198.710
13.679260,560,1984,283,-82,-76,62,830.910,12492.208,-2778.654,10196.511
13.699218,510,2028,234,52,-37,119,826.684,12470.315,-2807.073,10215.851
13.719207,624,2025,354,166,-74,181,820.962,12431.384,-2841.461,10254.182,457,163,461
13.739593,534,2088,472,319,-84,225,814.948,12387.272,-2884.131,10296.046
13.759185,551,2152,537,323,-105,264,809.563,12345.144,-2931.814,10333.533
13.779174,524,2160,490,309,-134,269,810.221,12308.235,-2985.399,10362.128
13.799163,535,2082,499,182,-187,262,813.566,12284.583,-3040.711,10373.844
13.819152,571,2012,487,65,-229,238,815.889,12272.795,-3095.636,10371.369,448,155,472
13.839508,517,1943,452,-10,-224,227,816.817,12268.646,-3150.244,10359.755
13.859100,585,1964,393,-47,-215,223,817.305,12265.150,-3205.987,10346.747
13.879089,511,1905,441,-61,-195,236,812.525,12260.473,-3261.953,10335.167
13.899078,426,1908,431,-60,-166,258,802.638,12259.160,-3312.158,10321.522
13.919067,377,1888,477,-96,-130,232,794.233,12259.481,-3350.243,10309.491,457,151,456
13.939453,406,1871,418,-67,-119,159,786.190,12263.583,-3377.042,10296.478
13.959045,512,1888,323,-86,-54,117,775.334,12266.048,-3393.130,10289.073,457,151,456,30708
13.979034,478,1910,395,-38,-10,93,758.344,12259.481,-3399.343,10296.113
13.999023,475,2009,524,42,73,84,741.332,12250.245,-3397.907,10308.811
14.019012,568,2011,515,82,106,53,720.585,12244.931,-3388.492,10319.689,462,158,465
14.039367,451,1991,415,24,150,28,697.628,12246.537,-3374.675,10323.887
14.058960,576,1915,553,-49,156,6,676.402,12251.054,-3356.141,10325.981
14.078949,563,1896,415,-22,173,-24,651.588,12260.986,-3333.616,10323.085
14.098968,536,1949,437,-34,189,-28,627.432,12268.435,-3307.493,10324.134
14.118957,526,1972,355,-42,224,-47,601.999,12276.327,-3274.030,10326.933,452,163,468
14.139312,477,2008,500,-42,252,-84,578.688,12283.014,-3232.871,10333.280
14.158905,517,2021,392,-22,259,-114,554.506,12295.794,-3185.987,10333.968
14.178894,595,2019,479,-86,259,-144,529.054,12308.802,-3134.627,10335.524
14.198883,506,2086,466,-81,300,-150,499.271,12326.695,-3080.727,10331.887
14.218872,642,2040,457,-100,313,-151,471.960,12343.327,-3024.932,10329.799,466,159,460
14.239227,581,2019,592,-125,310,-169,444.479,12363.068,-2970.897,10323.089
14.258850,541,1936,517,-114,284,-165,421.591,12387.219,-2921.952,10309.058
14.278808,621,1977,357,-153,246,-169,401.766,12412.528,-2874.430,10292.756
14.298828,626,1929,382,-161,243,-177,388.566,12431.317,-2829.411,10283.056
14.318786,565,1942,387,-123,200,-180,380.517,12449.904,-2787.763,10272.239,477,160,463
14.339172,570,2048,491,-66,153,-181,373.568,12459.913,-2746.270,10271.536
14.358764,579,2050,525,-33,177,-175,364.614,12468.511,-2706.298,10272.033
14.378753,516,2086,493,-51,188,-157,350.879,12482.773,-2667.160,10265.425
14.398742,580,2066,633,-113,197,-136,335.968,12498.946,-2627.021,10256.592
14.418731,622,2044,471,-119,189,-144,319.096,12524.298,-2586.540,10236.473,474,155,465
14.439087,493,2000,409,-203,206,-152,301.071,12550.057,-2547.436,10215.254
14.458709,530,1928,450,-206,193,-138,285.777,12572.705,-2506.711,10197.904,474,155,465,30750
14.478698,481,2013,370,-163,199,-161,269.026,12593.411,-2464.417,10183.109
14.498748,459,1995,575,-88,215,-157,255.110,12601.201,-2417.505,10185.076
14.518676,532,2112,570,-45,200,-177,238.337,12610.363,-2366.570,10186.104,472,158,465
14.539032,406,2104,482,18,289,-180,225.005,12620.524,-2314.381,10185.815
14.558624,516,2064,578,-76,252,-201,213.274,12633.207,-2258.223,10182.950
14.578613,451,1956,222,-75,234,-239,202.741,12651.741,-2199.967,10172.902
14.598602,550,1977,422,-126,235,-249,194.170,12654.754,-2138.607,10182.401
14.618591,605,2089,433,55,271,-247,181.637,12651.298,-2081.313,10198.785,475,152,481
14.638946,523,2129,541,95,296,-197,164.001,12643.884,-2031.081,10218.387
14.658569,492,2175,570,110,269,-144,142.885,12640.437,-1987.468,10231.536
14.678558,452,2168,667,44,225,-111,120.655,12642.688,-1948.461,10236.543
14.698547,498,2158,455,-20,191,-97,97.501,12653.441,-1911.797,10230.414
14.718536,479,2141,479,-85,219,-92,78.354,12663.353,-1879.570,10224.285,477,153,486
14.738891,491,2022,488,-110,186,-89,61.884,12675.889,-1852.441,10213.810
14.758484,487,2124,500,-84,149,-84,49.994,12687.261,-1828.368,10204.088
14.778473,484,2014,483,-71,147,-83,42.972,12692.363,-1803.573,10202.188
14.798462,450,1992,504,9,132,-97,35.086,12694.955,-1780.026,10203.128
14.818451,443,2017,589,-58,118,-83,22.964,12698.984,-1757.215,10202.103,480,145,471
14.838836,426,2015,484,19,123,-71,11.514,12703.041,-1734.835,10200.902
14.858429,488,1887,381,-46,107,-68,4.207,12709.381,-1714.643,10196.423
14.878418,529,1848,460,-81,67,-81,3.321,12714.446,-1696.526,10193.139
14.898407,410,1849,470,-2,18,-104,8.229,12715.674,-1680.328,10194.288
14.918396,397,1912,519,41,28,-103,16.687,12713.529,-1662.961,10199.798,463,149,462
14.938781,459,1915,558,71,23,-120,27.851,12713.126,-1645.229,10203.151
14.958343,487,1835,465,-39,-2,-125,34.945,12723.242,-1625.181,10193.729,463,149,462,30744
14.978332,305,1921,441,-93,27,-131,40.440,12734.306,-1604.519,10183.160
14.998321,489,1806,533,-88,54,-128,44.003,12744.494,-1580.348,10174.177
15.018310,451,1744,479,-68,94,-138,43.208,12754.944,-1557.077,10164.668,468,147,483
15.038696,291,1863,614,-48,96,-108,36.630,12765.513,-1531.123,10155.364
15.058288,256,1883,635,-48,151,-101,31.181,12775.673,-1499.663,10147.297
15.078277,244,1896,557,-45,169,-142,25.257,12793.147,-1465.695,10130.248
15.098266,407,1882,643,-189,162,-146,16.939,12815.279,-1430.757,10107.260
15.118255,364,1915,580,-214,149,-139,8.488,12844.941,-1396.645,10074.335,461,149,478
15.138611,444,1870,478,-229,142,-149,0.125,12871.906,-1366.131,10044.061
15.158233,390,1917,625,-261,158,-121,-14.516,12895.007,-1339.676,10017.948
15.178192,336,1999,654,-152,144,-73,-32.124,12914.777,-1319.644,9995.073
15.198211,403,1918,595,-191,153,-26,-51.594,12934.989,-1304.193,9970.853
15.218170,389,1875,525,-164,144,-15,-70.916,12955.104,-1292.037,9946.172,475,149,476
15.238525,324,1848,496,-185,118,0,-88.524,12970.540,-1280.447,9927.393
15.258148,249,1895,376,-103,107,-7,-101.124,12978.471,-1265.302,9918.847
15.278137,345,1895,580,-39,102,-48,-108.708,12970.586,-1242.274,9931.982
15.298126,329,1977,512,101,165,-95,-114.897,12960.185,-1212.298,9949.179
15.318084,416,1949,724,123,130,-126,-123.592,12942.359,-1177.192,9976.458,463,142,490
15.338470,347,1902,474,145,165,-125,-135.214,12934.852,-1142.250,9990.096
15.358093,423,1867,327,108,207,-130,-147.087,12923.408,-1107.111,10008.678
15.378051,449,1935,431,99,190,-121,-162.283,12906.798,-1075.185,10033.327
15.398040,459,1950,449,168,176,-88,-176.115,12885.796,-1049.444,10062.770
15.418029,381,1919,433,222,141,-58,-192.037,12859.633,-1029.709,10097.925,471,135,490
15.438415,517,1963,364,236,139,-22,-211.285,12833.861,-1013.348,10131.926
15.458007,524,2041,590,214,163,3,-236.656,12807.126,-1001.013,10166.362,471,135,490,30761
15.477996,356,1982,490,231,121,36,-269.398,12787.007,-989.764,10191.941
15.497986,306,1960,573,148,179,59,-298.775,12771.777,-977.172,10211.415
15.517975,345,2030,536,108,154,33,-326.125,12763.977,-958.421,10222.103,467,141,491
15.538330,224,2006,557,58,181,-5,-355.282,12760.256,-927.538,10228.623
15.557922,287,1997,455,5,258,-56,-382.781,12764.612,-885.864,10225.890
15.577942,232,1999,566,-61,307,-109,-410.540,12771.038,-834.167,10221.137
15.597900,378,2073,608,-76,309,-147,-443.239,12782.749,-772.662,10209.960
15.617889,372,2087,600,-114,371,-168,-481.668,12797.807,-707.504,10194.068,467,143,484
15.638244,342,2034,693,-145,411,-154,-523.322,12816.418,-643.576,10172.846
15.657898,348,2043,519,-197,398,-138,-570.555,12839.377,-581.698,10145.044
15.677856,422,2120,573,-185,411,-115,-612.973,12853.499,-527.045,10127.660
15.697845,381,2152,514,-138,389,-96,-654.379,12863.915,-478.539,10114.243
15.717895,376,2146,602,-107,355,-60,-693.946,12868.284,-439.327,10107.825,475,152,483
15.738189,393,2092,531,-27,323,-31,-731.527,12871.315,-407.076,10102.664
15.757812,388,2074,488,-56,287,-8,-769.572,12872.068,-379.452,10099.954
15.777801,334,2053,494,0,238,13,-807.180,12868.242,-360.210,10102.598
15.797760,498,2125,400,-22,250,58,-853.199,12864.704,-342.249,10103.947
15.817749,454,2135,520,22,295,79,-897.789,12853.815,-331.088,10114.308,479,151,472
15.838134,451,2147,432,95,216,103,-943.536,12837.350,-323.193,10131.297
15.857727,436,2181,483,141,225,115,-984.991,12818.577,-315.588,10151.340
15.877716,440,2110,420,124,190,88,-1022.412,12801.637,-305.005,10169.325
15.897705,536,2122,368,156,214,61,-1056.161,12781.427,-295.186,10191.562
15.917694,481,2187,484,163,185,67,-1096.581,12756.277,-285.324,10219.047,488,152,488
15.938049,491,2214,465,201,214,97,-1141.016,12736.185,-276.644,10239.461
15.957672,447,2179,522,132,247,110,-1188.305,12716.554,-267.118,10258.716,488,152,488,30765
15.977661,442,2176,445,134,255,108,-1235.956,12706.207,-253.566,10266.249
15.997650,566,2137,361,7,279,86,-1279.118,12703.400,-233.430,10264.912
16.017608,434,2046,291,-8,252,33,-1315.924,12697.163,-209.746,10268.487,498,155,477
16.037994,478,2051,297,49,249,5,-1350.784,12684.366,-181.028,10280.316
16.057586,496,2073,289,108,268,-26,-1380.810,12666.042,-149.004,10299.416
16.077575,518,2174,471,128,242,-66,-1406.707,12644.612,-114.586,10322.658
16.097595,523,2174,444,174,251,-84,-1431.607,12626.756,-76.404,10341.428
16.117553,464,2119,459,90,287,-102,-1453.603,12616.083,-34.020,10351.607,506,143,479
16.137909,466,2075,355,59,246,-125,-1473.848,12611.324,11.556,10354.592
16.157531,467,2090,412,-51,239,-145,-1494.433,12616.425,61.425,10345.248
16.177520,469,1968,261,-99,253,-154,-1510.811,12626.763,112.726,10329.813
16.197479,422,1939,258,-165,259,-177,-1527.436,12638.224,167.628,10312.593
16.217468,384,1995,297,-129,270,-187,-1545.609,12642.534,225.857,10303.487,503,148,482
16.237854,391,2038,354,-79,283,-203,-1562.354,12645.571,287.344,10295.701
16.257446,407,2009,495,-86,310,-222,-1579.670,12651.465,353.036,10283.767
16.277435,461,1957,361,-131,307,-231,-1595.172,12667.100,421.296,10259.530
16.297424,459,1992,364,-246,296,-251,-1607.430,12686.627,489.273,10230.430
16.317444,425,1996,414,-228,285,-246,-1618.988,12704.071,554.398,10203.604,504,149,462
16.337768,409,2031,616,-236,279,-234,-1626.841,12725.370,612.591,10172.439
16.357391,406,2011,533,-269,217,-204,-1636.556,12755.968,666.366,10129.085
16.377380,380,2009,544,-360,202,-167,-1649.647,12789.767,715.842,10080.850
16.397339,415,1895,492,-351,224,-144,-1658.969,12824.086,758.391,10032.493
16.417328,429,1878,438,-371,199,-130,-1668.587,12856.322,798.558,9986.418,511,151,468
16.437713,318,1881,520,-309,142,-118,-1675.513,12881.890,832.825,9949.442
16.457306,372,1901,494,-261,131,-100,-1685.508,12897.403,864.344,9924.938,511,151,468,30699
16.477295,454,1925,618,-107,155,-90,-1696.639,12901.639,888.160,9915.429
16.497284,448,1906,525,-51,155,-55,-1712.665,12904.905,906.820,9906.731
16.517273,382,1906,635,-52,138,-23,-1723.919,12909.215,915.267,9898.383,504,142,462
16.537658,442,1852,534,-39,35,9,-1732.753,12911.775,914.759,9893.548
16.557251,461,1878,511,-12,21,39,-1738.015,12912.805,904.763,9892.199
16.577240,407,1952,525,10,-34,64,-1745.084,12909.995,890.271,9895.937
16.597229,418,2002,579,46,-22,80,-1748.948,12902.604,869.003,9906.778
16.617218,350,1952,526,102,-69,99,-1748.821,12893.181,843.294,9921.280,513,143,486
16.637573,402,1981,563,123,-118,88,-1740.695,12884.731,814.387,9936.090
16.657196,401,2011,476,101,-153,83,-1735.686,12878.385,789.209,9947.219
16.677154,367,2004,451,98,-85,78,-1733.734,12868.727,767.794,9961.725
16.697143,387,1960,602,120,-55,64,-1736.662,12857.195,753.344,9977.196
16.717132,478,1981,468,122,-1,48,-1746.754,12850.251,747.733,9984.799,504,130,490
16.737518,279,1975,574,34,88,36,-1761.037,12849.670,751.398,9982.763
16.757110,460,1999,331,-36,90,24,-1775.233,12856.055,765.670,9970.937
16.777099,435,2020,463,-80,124,-31,-1790.014,12855.047,783.330,9968.222
16.797088,501,2026,442,5,130,-38,-1808.358,12845.444,803.516,9975.680
16.817077,429,1988,640,90,190,-50,-1837.509,12831.282,830.503,9986.363,512,145,492
16.837433,504,1891,472,50,295,-38,-1865.665,12831.314,865.527,9978.125
16.857055,545,1908,445,-67,241,-75,-1884.059,12835.692,895.247,9966.408
16.877014,504,1997,420,-86,189,-61,-1897.413,12841.414,915.941,9954.617
16.897003,424,2025,427,-70,94,-43,-1902.310,12842.424,932.800,9950.813
16.916992,373,1958,777,9,103,-88,-1903.046,12835.927,957.465,9956.711,511,141,475
16.937439,283,1978,500,-2,96,-137,-1898.478,12851.683,991.696,9933.882
16.956970,233,2043,457,-246,89,-163,-1893.199,12868.357,1032.377,9909.129,511,141,475,30761
16.976959,377,2044,522,-146,171,-191,-1901.257,12871.397,1086.193,9897.877
16.996948,500,2021,668,-80,264,-226,-1916.443,12866.524,1145.444,9894.605
17.016937,487,1993,558,-18,283,-219,-1934.910,12864.365,1195.627,9887.878,512,142,481
17.037292,427,2038,439,-59,259,-139,-1961.142,12861.448,1236.696,9881.451
17.056915,993,2469,2303,-12,252,-98,-2033.417,12788.366,1288.549,9954.797
17.076873,1043,1117,4009,1518,900,-164,-2103.747,12736.644,1346.128,9998.776
17.096862,3214,3263,4560,-260,395,3,-2241.971,12791.679,1431.887,9885.932
17.116851,1140,1452,2633,89,1484,302,-2584.780,12952.224,1490.960,9579.732,513,134,491
17.137237,-2617,571,-1417,-3099,2002,1447,-3158.370,13230.671,1837.244,8946.172
17.156829,1110,3100,-3621,-3500,5534,480,-3575.620,13223.419,2525.653,8626.277
17.176819,-443,4488,493,-1241,2143,-2526,-3800.885,12818.101,3139.875,8934.549
17.196808,3081,5150,4987,4032,4064,-3001,-3992.049,12131.537,3778.289,9541.975
17.216797,2846,3707,815,2830,2403,-3877,-3931.843,12021.670,4340.753,9466.432,521,142,478
17.237152,4530,3230,2399,-1776,1858,-2115,-3862.085,12045.404,4686.400,9298.690
17.256775,2574,2992,2175,-1275,334,-1220,-3864.911,12179.996,4829.073,9045.753
17.276733,1987,3422,2277,-1861,1176,377,-4067.262,12271.077,4951.871,8763.130
17.296722,1947,2326,3126,-749,1773,550,-4432.438,12216.752,5172.522,8531.407
17.316711,2544,2056,819,-760,3041,145,-4747.166,12202.404,5586.237,8111.420,576,95,496
17.337097,3106,1972,-1356,-2037,3856,-507,-5203.938,12036.291,6174.689,7639.069
17.356689,3699,2755,-705,-1404,5122,-1184,-5735.532,11642.090,6781.754,7349.057
17.376678,4796,2931,927,808,5019,-1789,-6248.919,11106.187,7278.690,7284.210
17.396667,4153,3045,549,1089,4476,-2063,-6679.833,10625.085,7798.600,7078.464
17.416656,3511,2581,137,49,4369,-1758,-6948.288,10258.910,8313.987,6766.764,540,155,458
17.437011,2842,2364,-1075,-1314,3794,-1586,-7079.071,9960.396,8869.726,6359.297
17.456604,3386,2921,-442,-1959,3481,-1799,-7100.883,9656.725,9411.207,6015.790,540,155,458,30730
17.476623,2742,2812,162,-1888,2774,-2131,-7032.600,9401.047,9899.529,5709.432
17.496582,1650,2048,-266,-1997,2208,-1827,-6901.602,9169.449,10331.278,5476.242
17.516571,1713,1555,-416,-1714,1233,-2123,-6711.366,8950.485,10693.589,5378.565,589,130,460
17.536956,1383,1619,-464,-1501,898,-2167,-6541.018,8731.005,11038.567,5250.724
17.556549,299,1267,-456,-1573,1137,-1860,-6392.721,8512.292,11347.595,5132.398
17.576538,712,977,154,-929,893,-1810,-6280.310,8293.108,11570.667,5131.974
17.596527,322,1389,150,-594,599,-1625,-6185.700,8071.838,11788.518,5103.803
17.616485,184,1419,842,-529,675,-1724,-6078.839,7859.901,11984.374,5106.847,601,152,399
17.636871,58,1231,848,-603,382,-1629,-5927.761,7682.229,12165.712,5126.001
17.656524,226,1357,821,-700,136,-1518,-5787.024,7534.376,12307.593,5167.410
17.676483,289,1474,914,-401,-18,-1204,-5655.621,7430.603,12413.187,5210.404
17.696594,672,1507,826,-523,-211,-981,-5495.978,7388.132,12481.424,5278.183
17.716430,277,1319,1081,-589,-635,-671,-5369.415,7407.408,12508.475,5317.252,555,154,436
17.736816,312,1390,624,-586,-446,-166,-5230.304,7479.772,12525.323,5314.944
17.756408,578,1743,519,-843,-455,86,-5152.118,7559.356,12512.213,5309.593
17.776397,391,1710,1313,-342,-378,280,-5200.110,7625.993,12450.810,5311.858
17.796386,434,1436,953,516,-8,633,-5264.640,7706.157,12382.159,5293.039
17.816375,869,1018,427,-10,-39,723,-5286.907,7822.130,12330.709,5220.339
17.836731,1280,966,-570,-326,140,836,-5312.485,7950.221,12287.563,5101.245,521,154,450
17.856353,1642,61,-2084,-403,270,916,-5430.424,8053.211,12223.754,4967.045
17.876312,824,2351,-2903,531,822,1120,-5735.812,8020.116,12136.283,4891.244
17.896331,2161,1971,1232,1850,1632,521,-6111.987,7911.226,11944.074,5082.385
17.916290,1326,2147,-1261,1372,-351,225,-6333.807,7884.139,11914.126,4920.597
17.936676,486,857,95,657,1032,640,-6584.184,7848.997,11831.932,4845.881,491,146,477
17.956268,1313,1494,-252,872,1083,691,-6752.971,7800.101,11805.865,4755.289,491,146,477,30734
17.976257,1061,1140,-31,475,825,136,-6895.854,7723.277,11796.350,4698.909
17.996246,1407,4111,-23,769,578,-193,-6966.872,7505.139,11936.088,4593.560
18.016235,2723,2433,-239,183,1515,-1448,-7100.847,7102.543,12084.792,4639.514
18.036621,2745,-555,44,1869,922,-2749,-6984.280,6969.774,12119.575,4918.678,514,145,481
18.056213,-585,1734,-4773,-1655,-8,-588,-7089.554,6679.000,12509.255,4133.177
18.076202,1210,2184,-824,-2724,3648,-486,-7133.115,6403.421,12678.284,3976.358
18.096191,-769,218,521,3102,1091,-1464,-7295.575,6149.636,12689.819,4044.808
18.116150,3328,1732,-1131,-2946,1704,-320,-7194.326,5750.434,13034.874,3701.576
18.136535,303,1504,-1017,-986,768,-2180,-7011.730,5480.993,13285.702,3566.495,550,166,431
18.156189,1565,341,-179,-1664,1884,-1607,-6932.247,5226.062,13441.124,3521.909
18.176117,272,1270,-276,-108,-196,-1432,-6854.749,5024.309,13565.631,3489.672
18.196136,284,1549,-29,-437,854,-1096,-6788.190,4847.155,13677.967,3431.358
18.216095,133,1398,-35,-494,568,-910,-6755.610,4694.419,13756.786,3392.704
18.236480,162,1125,420,-113,649,-676,-6758.258,4557.631,13815.724,3333.935,517,176,415
18.256073,121,1182,108,-33,686,-544,-6798.843,4441.061,13848.243,3273.269
18.276062,-64,950,348,187,628,-364,-6885.500,4337.114,13847.741,3233.391
18.296051,68,1536,360,679,551,-283,-6937.994,4263.568,13850.399,3207.507
18.316040,-213,1663,967,229,301,-236,-6965.394,4215.236,13858.163,3178.339
18.336395,36,2084,462,-66,350,-118,-6921.473,4198.094,13894.601,3137.626,517,176,427
18.356018,-448,1914,460,-452,186,-69,-6914.460,4181.306,13912.459,3096.101
18.375976,-417,1698,649,16,253,-6,-6968.206,4160.674,13901.148,3053.914
18.395965,-304,1394,661,255,365,106,-7075.846,4115.296,13864.778,3033.166
18.415954,93,1665,1034,671,348,34,-7171.244,4083.954,13828.772,3015.805
18.436309,-315,2309,885,538,167,119,-7241.216,4079.849,13805.061,2962.320,486,175,428
18.455932,-347,1986,2029,432,256,38,-7316.823,4071.082,13766.250,2969.208,486,175,428,30718
18.475891,-472,1740,1098,601,150,-47,-7411.971,4036.611,13713.589,3023.469
18.495880,-16,1631,435,823,27,-86,-7601.710,3990.944,13604.442,3104.989
18.515869,303,1435,214,1683,-156,18,-7869.229,3977.307,13428.994,3217.734
18.536255,107,2087,-137,1808,-449,286,-8068.759,4055.087,13265.852,3302.121,495,171,424
18.555847,56,2688,1877,1258,-399,746,-8282.755,4141.288,13091.234,3361.655
18.575836,-289,2707,1023,1666,-423,670,-8408.277,4264.959,12961.032,3399.719
18.595825,-463,3177,373,543,-358,840,-8497.512,4372.902,12866.701,3399.036
18.615814,385,2610,350,569,-316,711,-8639.747,4440.406,12735.220,3447.780
18.636169,674,2696,85,1136,-400,448,-8792.862,4503.580,12595.789,3490.685,501,177,414
18.655822,353,2771,341,959,-236,538,-8945.809,4572.853,12463.900,3485.416
18.675781,128,3070,254,923,-14,754,-9099.093,4631.536,12341.999,3444.688
18.695770,-6,3386,653,915,135,737,-9253.594,4658.487,12230.418,3394.375
18.715759,-120,3293,519,856,308,560,-9394.222,4660.128,12132.943,3355.430
18.736114,303,3632,48,833,227,389,-9522.337,4649.443,12040.936,3340.521,511,187,370
18.755737,274,3653,203,750,220,264,-9660.656,4628.076,11943.666,3322.184
18.775726,289,3970,98,934,258,306,-9816.971,4596.338,11835.050,3296.630
18.795684,434,4342,-250,1116,351,300,-9985.543,4570.445,11711.956,3265.806
18.815673,260,4464,-328,1094,386,417,-10174.368,4543.483,11571.384,3221.413
18.836059,-336,4734,-651,1236,434,480,-10352.890,4496.473,11445.944,3166.257,534,200,322
18.855652,-97,5485,-185,977,588,329,-10490.093,4419.950,11364.779,3114.354
18.875641,98,4365,-315,744,611,203,-10686.537,4281.055,11236.554,3105.767
18.895630,94,4744,-881,2106,695,-131,-10961.387,4084.886,11042.892,3106.712
18.915619,527,2920,976,2163,1056,-84,-11196.891,3893.453,10875.329,3103.757
18.935974,-139,1753,834,1074,651,-285,-11158.127,3827.776,10951.161,3058.076,549,189,285
18.955566,-23,3673,855,-1278,381,-196,-11038.312,3792.008,11086.704,3049.060,549,189,285,30734
18.975555,-37,4123,-180,73,205,-414,-11017.418,3714.094,11131.721,3056.502
18.995544,-68,4025,-426,-18,215,-413,-11020.359,3633.717,11147.935,3083.305
19.015533,-146,3152,-93,-8,197,-440,-11030.491,3555.110,11155.382,3111.647
19.035919,-285,2837,25,59,271,-364,-11013.325,3482.844,11198.241,3100.208,567,186,254
19.055511,-107,2665,-6,-207,389,-199,-10996.970,3441.287,11230.781,3086.940
19.075500,-13,2752,18,-9,195,-109,-10999.850,3418.555,11237.716,3076.680
19.095489,28,2425,-167,-58,67,-35,-11008.733,3410.711,11232.410,3072.985
19.115478,0,2014,7,148,51,24,-11055.356,3408.969,11188.119,3069.113
19.135833,217,1772,101,511,47,185,-11124.170,3422.991,11115.432,3068.969,557,197,213
19.155426,223,1528,61,495,-90,264,-11178.940,3459.637,11056.653,3041.064
19.175415,83,1421,-85,308,-20,389,-11218.963,3502.838,11017.079,2987.374
19.195404,63,1224,25,167,19,431,-11244.479,3541.427,10987.831,2953.470
19.215393,81,1416,107,50,-152,273,-11249.897,3595.908,10967.984,2940.751
19.235778,535,1392,126,54,-199,260,-11227.825,3668.818,10967.831,2935.615,530,189,220
19.255371,56,1474,90,-227,-315,289,-11190.387,3761.691,10981.599,2909.438
19.275360,46,1504,423,-379,-299,414,-11137.440,3870.950,11004.951,2880.913
19.295349,-33,1613,339,-460,-281,521,-11068.571,3977.074,11048.087,2836.337
19.315338,-157,1678,350,-669,-335,407,-10997.069,4073.158,11095.722,2791.818
19.335693,60,1583,46,-499,-123,397,-10977.091,4134.522,11105.487,2740.944,555,193,200
19.355285,-89,1316,261,-128,-3,400,-11003.477,4153.306,11087.784,2677.686
19.375366,-86,972,277,99,304,327,-10983.350,4172.665,11113.427,2623.366
19.395294,12,1036,-508,-554,28,176,-10885.505,4209.109,11207.951,2570.302
19.415252,24,984,-311,-876,28,114,-10824.792,4233.673,11265.991,2532.346
19.435638,45,932,4,-386,-8,97,-10804.918,4246.714,11285.142,2510.011,558,195,198
19.455230,90,933,121,-139,54,97,-10791.657,4255.922,11299.828,2485.274,558,195,198,30759
19.475219,124,850,104,-185,57,103,-10769.752,4269.224,11322.363,2454.731
19.495208,91,724,-36,-244,63,126,-10747.031,4281.814,11347.991,2413.695
19.515197,59,633,1,-268,122,154,-10733.866,4288.647,11367.876,2366.104
19.535553,55,552,16,-158,186,174,-10733.986,4288.625,11378.271,2315.082,565,186,228
19.555175,33,533,172,-109,234,174,-10736.681,4279.392,11390.495,2258.877
19.575134,60,439,248,-124,287,150,-10734.898,4267.068,11407.615,2203.596
19.595123,176,400,107,-165,267,123,-10718.309,4256.878,11437.941,2146.106
19.615112,120,375,-13,-302,264,117,-10699.822,4245.774,11471.979,2077.576
19.635498,110,392,45,-275,340,159,-10694.952,4232.506,11493.926,2007.230,572,181,233
19.655090,102,569,149,-160,332,174,-10697.110,4216.858,11509.182,1940.133
19.675079,122,746,342,-126,347,156,-10702.896,4197.036,11521.169,1879.098
19.695068,131,852,503,-89,334,121,-10700.528,4175.845,11540.189,1822.224
19.715057,156,920,492,-178,314,83,-10675.250,4155.752,11579.428,1766.649
19.735412,212,1024,351,-392,272,36,-10620.893,4139.495,11643.365,1711.343,580,186,247
19.755005,243,1176,233,-575,241,4,-10557.806,4121.729,11715.468,1651.461
19.775024,279,1390,267,-590,272,8,-10506.339,4098.821,11778.194,1589.369
19.795013,195,1595,379,-461,306,13,-10479.647,4068.312,11820.069,1532.067
19.814972,110,1670,574,-265,337,0,-10464.812,4028.939,11852.944,1482.735
19.835357,140,1910,491,-245,336,-62,-10434.283,3977.980,11901.944,1442.419,576,187,243
19.854950,68,1937,725,-359,338,-199,-10400.199,3911.641,11956.895,1415.280
19.874939,21,1889,546,-366,336,-307,-10342.880,3834.617,12033.241,1398.962
19.894928,88,1723,278,-567,298,-427,-10272.367,3749.858,12120.217,1397.428
19.914917,107,1914,32,-555,239,-526,-10219.501,3661.017,12190.454,1409.615
19.935272,235,1950,494,-244,252,-532,-10233.185,3564.547,12204.011,1439.954,586,180,257
19.954895,286,2245,654,203,229,-508,-10273.776,3474.246,12192.333,1470.233,586,180,257,30728
19.974884,337,2364,1192,426,236,-414,-10336.283,3402.756,12156.272,1497.663
19.994873,312,2344,729,454,159,-255,-10345.012,3378.061,12155.623,1498.568
20.014862,209,2529,227,-141,76,-18,-10333.621,3384.235,12166.657,1473.473
20.035217,267,2664,400,-32,61,156,-10372.981,3395.598,12132.867,1449.191,592,183,268
20.054809,345,2807,253,361,80,225,-10443.759,3404.738,12072.943,1419.551
20.074798,218,3312,332,515,154,267,-10550.244,3407.118,11982.486,1392.606
20.094787,125,3623,1087,906,181,262,-10703.453,3400.977,11847.054,1397.203
20.114776,104,3916,1251,1187,91,163,-10803.502,3391.359,11756.474,1415.546
20.135131,197,3871,1269,557,-10,11,-10817.098,3395.098,11739.226,1445.580,565,193,270
20.154754,439,3931,686,-46,-188,-82,-10753.250,3418.478,11788.437,1466.221
20.174743,925,3625,-188,-571,-231,-44,-10666.474,3473.196,11852.348,1456.195
20.194732,887,3529,-927,-598,-222,289,-10649.694,3531.182,11860.589,1369.903
20.214721,686,3878,-706,8,290,695,-10786.174,3582.591,11734.316,1250.902
20.235077,765,3801,460,1334,479,953,-11056.921,3613.570,11481.626,1137.675,560,198,261
20.254669,702,3685,689,1985,606,993,-11258.115,3628.212,11293.578,990.673
20.274658,801,3682,-244,967,626,889,-11332.070,3655.862,11221.574,854.727
20.294647,949,3388,-164,311,433,682,-11393.419,3683.442,11155.548,781.947
20.314636,646,3096,-93,442,128,371,-11451.147,3694.776,11093.492,767.934
20.335022,658,2966,-137,380,44,92,-11482.215,3693.362,11061.550,771.603,569,192,234
20.354614,569,2695,-61,183,33,28,-11492.865,3681.945,11055.296,757.091
20.374603,574,2602,-138,-22,155,60,-11475.361,3664.205,11081.680,722.145
20.394592,573,2580,-81,-318,224,41,-11438.147,3638.380,11131.886,668.983
20.414581,601,2497,-53,-474,301,68,-11389.713,3613.355,11193.229,604.281
20.434967,542,2429,20,-570,281,88,-11330.075,3593.961,11263.129,538.699,590,187,215
20.454528,507,2388,99,-607,257,103,-11270.578,3580.591,11329.783,474.224,590,187,215,30740
20.474517,451,2198,122,-574,228,123,-11216.011,3569.880,11389.584,412.144
20.494506,486,2137,117,-496,232,130,-11165.798,3557.662,11444.667,350.767
20.514496,351,2067,350,-506,232,112,-11111.766,3542.989,11503.342,290.572
20.534881,452,1960,55,-583,224,58,-11024.338,3530.183,11591.990,250.953,601,169,205
20.554474,566,1850,43,-763,92,-16,-10950.059,3519.879,11666.049,213.089
20.574463,615,1829,-239,-580,109,23,-10888.730,3517.002,11724.890,169.241
20.594513,485,1562,-560,-514,129,113,-10860.060,3518.092,11751.788,114.155
20.614410,517,1494,-896,-180,219,203,-10887.287,3512.266,11728.712,60.794
20.634796,482,1337,-670,340,308,192,-10983.357,3502.266,11641.919,33.906,598,165,201
20.654480,394,1269,750,797,232,134,-11089.057,3501.423,11541.518,40.500
20.674377,781,1833,-640,493,-49,72,-11093.591,3505.443,11535.901,50.295
20.694366,616,1898,-321,21,-170,-74,-11084.077,3528.751,11537.719,87.361
20.714355,498,1978,-793,-100,-379,-72,-11090.333,3552.411,11524.045,129.232
20.734710,182,870,-264,50,-209,-4,-11123.629,3564.786,11487.742,156.141,595,168,227
20.754333,-1,1069,5,290,-96,9,-11139.504,3571.980,11469.759,180.213
20.774322,252,-363,1190,118,-62,-65,-11164.851,3556.979,11449.435,199.650
20.794311,53,817,24,315,101,-61,-11141.306,3544.668,11475.914,213.153
20.814270,92,1262,-254,-94,-22,-163,-11115.446,3520.892,11507.750,239.353
20.834655,110,947,16,-133,-32,-245,-11120.837,3486.262,11512.474,267.093,603,180,213
20.854278,-79,1699,-759,77,23,-252,-11077.175,3451.663,11564.254,292.716
20.874237,94,957,506,-682,-22,-307,-11054.594,3402.168,11599.446,330.902
20.894226,65,1388,-159,-162,-6,-387,-11009.213,3358.180,11654.218,366.725
20.914215,113,1440,-9,-311,-29,-379,-10970.945,3319.113,11700.161,404.386
20.934600,49,1549,-352,-285,-23,-323,-10937.558,3276.872,11742.481,426.046,610,177,208
20.954193,218,1615,-405,-263,65,-320,-10905.763,3234.585,11782.476,458.776,610,177,208,30744
20.974182,-190,1226,-24,-284,-31,-349,-10902.910,3197.295,11794.652,474.860
20.994171,522,1565,-339,-38,87,-120,-10881.670,3144.237,11827.980,487.172
21.014129,586,2090,-871,-233,135,-265,-10845.001,3114.074,11869.816,481.046
21.034515,94,1409,-45,-559,-39,-194,-10862.828,3095.043,11859.227,462.431,612,170,215
21.054138,-136,1166,621,119,121,106,-10867.983,3097.482,11854.432,447.684
21.074096,51,1581,293,-15,13,55,-10821.597,3102.594,11895.595,444.061
21.094085,-29,1579,414,-365,-26,-17,-10761.333,3109.008,11948.561,441.716
21.114074,-32,1590,388,-562,-124,-39,-10674.144,3117.871,12023.625,457.613
21.134460,-16,1384,405,-651,-184,-146,-10585.604,3113.230,12101.678,487.452,596,176,226
21.154052,-84,1206,330,-649,-182,-235,-10506.031,3097.865,12173.254,523.320
21.174041,241,1176,831,-380,-137,-259,-10449.472,3084.746,12223.411,562.607
21.194030,267,1497,1074,-358,-180,-250,-10375.595,3077.651,12285.956,604.814
21.214019,-186,1135,1223,-467,-188,-305,-10302.282,3076.872,12346.256,633.429
21.234375,-253,1803,495,-358,-160,-163,-10255.033,3066.267,12387.158,652.720,590,192,236
21.253967,136,1709,1539,-145,-12,-26,-10248.530,3063.816,12391.234,688.041
21.273986,-142,1736,1272,58,-176,-233,-10254.088,3059.649,12386.229,713.428
21.293945,99,1886,2087,202,-33,-18,-10267.889,3066.884,12372.298,725.507
21.313934,-26,2130,1004,-106,-146,20,-10131.434,3097.516,12478.450,695.092
21.334320,-84,2244,1054,-1237,11,143,-10013.280,3125.425,12568.255,663.571,583,189,248
21.353912,61,1815,1167,-532,-114,102,-9957.605,3145.897,12608.307,644.555
21.373901,281,2025,-5,-503,24,130,-9870.939,3150.704,12678.494,573.448
21.393890,360,1951,-159,-682,307,205,-9872.836,3143.553,12682.341,488.719
21.413879,472,2244,-170,314,461,297,-9990.324,3119.998,12598.979,400.239
21.434234,328,2557,85,818,695,306,-10187.590,3069.497,12455.208,307.267,570,183,263
21.453857,450,2684,420,1530,872,264,-10436.566,2994.943,12267.452,231.220,570,183,263,30724
21.473816,492,3097,284,1622,840,141,-10644.017,2894.462,12113.630,149.616
21.493805,551,3249,405,1232,927,0,-10813.472,2784.261,11989.346,87.799
21.513794,694,3352,247,1016,755,-153,-10930.134,2678.465,11907.603,49.130
21.534179,841,3209,22,629,631,-231,-11007.970,2589.251,11855.601,23.060,576,182,267
21.553772,962,3104,-459,411,443,-204,-11062.775,2531.195,11817.084,2.570
21.573761,798,3139,-580,350,302,-88,-11142.051,2500.580,11748.915,-14.862
21.593750,659,3180,-272,682,223,24,-11238.746,2496.984,11657.227,-12.290
21.613739,931,3392,-147,673,-19,66,-11302.787,2527.846,11588.460,4.980
21.634094,862,3443,-218,466,-227,143,-11344.141,2609.432,11529.765,35.958,582,181,263
21.653686,708,3305,-172,383,-528,293,-11384.053,2727.783,11462.594,83.140
21.673706,589,3111,-260,495,-646,379,-11428.110,2851.273,11388.024,129.943
21.693695,463,2894,-141,513,-622,390,-11470.136,2964.506,11316.145,167.277
21.713653,403,2738,-120,435,-537,385,-11493.396,3067.411,11264.428,202.317
21.734039,412,2687,-92,263,-532,287,-11502.523,3158.638,11228.933,247.907,573,197,225
21.753631,455,2579,-98,195,-529,201,-11510.832,3235.575,11197.417,291.675
21.773620,447,2424,-118,195,-440,159,-11533.844,3290.585,11156.914,318.103
21.793609,411,2208,-175,314,-212,170,-11567.078,3323.899,11112.358,324.558
21.813659,650,2125,-267,321,-64,185,-11621.325,3339.156,11051.620,303.247
21.833984,741,1931,-310,468,128,258,-11692.306,3362.590,10970.421,261.265,575,174,198
21.853576,543,1662,-275,601,190,397,-11778.218,3386.564,10871.797,210.261
21.873565,629,1631,-306,686,203,416,-11864.317,3412.052,10770.492,166.779
21.893554,468,1624,-86,685,130,394,-11949.355,3441.000,10667.306,128.233
21.913513,642,1600,-13,645,68,379,-12013.594,3474.090,10584.417,98.957
21.933899,591,1689,162,457,-26,325,-12057.429,3509.667,10522.788,83.668,600,168,187
21.953491,690,1696,145,378,-57,243,-12079.280,3543.660,10486.273,83.481,600,168,187,30697
21.973480,722,1712,87,186,-128,156,-12082.188,3582.721,10469.657,80.964
21.993469,711,1618,-14,17,-158,181,-12067.682,3628.885,10470.559,71.230
22.013458,671,1529,-102,-107,-190,209,-12043.958,3680.919,10479.765,62.195
22.033813,622,1430,-118,-142,-223,200,-12020.088,3732.177,10489.050,60.186,607,160,187
22.053436,623,1423,-117,-121,-248,161,-11994.716,3785.449,10498.926,71.632
22.073425,653,1355,166,-125,-335,110,-11960.223,3844.668,10516.546,96.366
22.093414,572,1458,-180,-250,-423,75,-11904.035,3905.162,10557.596,127.465
22.113403,609,1354,74,-319,-423,0,-11863.896,3959.039,10582.158,165.398
22.133758,499,1326,18,-192,-433,23,-11810.365,4018.231,10619.192,193.075,620,153,164
22.153350,618,1434,-205,-425,-432,57,-11731.246,4072.935,10685.330,219.627
22.173340,426,1274,129,-503,-391,-51,-11681.416,4114.961,10723.019,252.794
22.193329,371,1243,174,-293,-346,-51,-11624.035,4150.640,10770.403,296.413
22.213318,228,1148,190,-379,-424,-162,-11545.583,4183.102,10839.986,362.379
22.233673,597,1365,51,-505,-538,-392,-11452.279,4209.516,10924.290,469.679,617,148,171
22.253296,462,1208,393,-471,-607,-415,-11381.068,4243.344,10981.358,557.261
22.273285,485,1221,172,-404,-572,-263,-11283.335,4296.408,11057.045,635.938
22.293243,433,1241,66,-631,-699,-231,-11177.069,4368.598,11131.153,722.031
22.313263,440,1337,117,-553,-794,-180,-11081.168,4453.902,11186.420,818.477
22.333618,419,1388,156,-403,-872,-138,-10997.946,4554.507,11219.640,925.609,624,155,180
22.353210,396,1465,222,-280,-966,-78,-10919.314,4670.883,11238.298,1042.841
22.373199,372,1501,292,-207,-1065,-27,-10836.705,4804.914,11249.543,1166.981
22.393188,407,1528,223,-229,-1175,25,-10742.355,4957.263,11259.801,1296.025
22.413177,488,1593,212,-270,-1280,75,-10640.094,5128.527,11264.220,1428.067
22.433532,547,1695,232,-262,-1370,156,-10539.222,5316.802,11254.738,1556.511,623,162,196
22.453155,651,1655,194,-198,-1397,273,-10438.959,5527.591,11229.280,1677.068,623,162,196,30738
22.473144,616,1714,134,-180,-1458,452,-10342.435,5757.335,11187.748,1776.750
22.493133,547,1760,178,-182,-1439,611,-10253.047,5995.622,11131.102,1860.525
22.513092,510,1851,219,-90,-1392,721,-10171.229,6235.246,11059.720,1945.720
22.533508,613,1988,427,-36,-1427,718,-10087.292,6469.949,10984.340,2041.075,621,164,235
22.553100,579,1985,604,24,-1445,664,-9995.563,6704.273,10907.811,2143.950
22.573059,638,2037,614,-83,-1485,635,-9874.316,6935.394,10854.654,2238.328
22.593048,690,2158,532,-293,-1500,571,-9726.126,7166.224,10820.717,2322.762
22.613037,850,2295,589,-521,-1479,536,-9571.532,7382.352,10796.949,2397.497
22.633423,895,2219,647,-486,-1462,502,-9423.729,7598.890,10762.261,2461.578,626,164,266
22.653015,1260,2216,449,-512,-1325,580,-9270.727,7814.353,10731.301,2502.820
22.673004,1452,2389,306,-536,-1295,669,-9135.470,8035.737,10679.289,2521.570
22.692993,1198,2360,414,-450,-1136,817,-9044.367,8258.119,10586.059,2524.614
22.712982,1027,2499,649,-81,-1010,1063,-8996.532,8464.462,10458.726,2542.786
22.733337,1014,2619,1130,164,-971,985,-8963.543,8642.486,10326.796,2599.046,652,145,296
22.752929,1102,2666,1281,266,-1043,722,-8878.144,8810.792,10239.533,2671.308
22.772949,1141,2633,1171,-111,-1168,481,-8735.963,8974.535,10203.843,2730.876
22.792907,1044,2592,1093,-505,-1205,318,-8564.574,9127.400,10201.529,2775.409
22.812896,1013,2523,970,-667,-1139,212,-8382.325,9264.095,10219.692,2811.847
22.833282,1056,2487,937,-742,-1081,112,-8214.164,9378.970,10242.195,2845.223,663,136,344
22.852874,977,2449,1155,-629,-925,66,-8086.072,9465.215,10256.288,2875.610
22.872863,958,2473,1409,-429,-704,41,-7973.895,9538.443,10265.488,2913.810
22.892822,847,2358,1536,-389,-721,-16,-7848.884,9612.886,10280.588,2955.059
22.912811,840,2318,1614,-468,-780,-28,-7691.853,9698.510,10307.802,2993.151
22.933197,686,2246,1639,-673,-895,-50,-7510.290,9791.446,10347.881,3013.289,685,114,374
22.952819,640,2182,1678,-846,-919,-35,-7306.361,9892.064,10391.962,3034.256,685,114,374,30718
22.972778,397,2026,1799,-883,-1015,-44,-7097.200,9997.315,10427.756,3062.805
22.992767,479,1940,1815,-876,-1085,-36,-6879.355,10108.195,10456.693,3097.074
23.012756,592,1805,1579,-803,-1133,30,-6663.831,10228.875,10467.595,3135.020
23.033172,505,1656,1378,-817,-1163,110,-6473.320,10359.486,10445.803,3177.703,674,106,415
23.052734,532,1593,1293,-470,-1157,324,-6335.696,10494.741,10373.869,3246.172
23.072723,401,1599,1324,-119,-1111,519,-6249.283,10632.418,10257.727,3333.557
23.092682,326,1665,1477,233,-1062,693,-6195.408,10773.836,10103.420,3449.303
23.112671,285,1663,1484,476,-1093,797,-6150.850,10918.695,9930.170,3574.393
23.133056,247,1482,1365,518,-1158,865,-6100.037,11070.551,9746.021,3699.046,662,89,445
23.152649,317,1466,1158,534,-1214,949,-6043.047,11228.756,9552.146,3819.498
23.172638,241,1475,1093,445,-1221,983,-5990.191,11387.153,9347.775,3937.624
23.192627,290,1427,1103,587,-1239,1046,-5936.166,11544.933,9128.149,4072.933
23.212616,264,1362,889,543,-1298,1030,-5874.256,11700.867,8915.268,4187.630
23.233001,322,1348,859,485,-1234,1039,-5810.879,11851.834,8697.924,4306.883,645,70,485
23.252594,240,1357,809,503,-1263,1019,-5745.374,11997.747,8480.379,4423.047
23.272583,147,1338,835,493,-1246,997,-5677.866,12134.838,8265.611,4541.216
23.292572,188,1235,853,530,-1222,962,-5606.222,12262.406,8056.607,4661.565
23.312561,250,1149,635,466,-1245,880,-5521.202,12386.269,7862.089,4766.513
23.332916,345,1106,509,351,-1210,828,-5432.718,12506.052,7668.696,4869.368,633,72,506
23.352539,357,1112,405,383,-1232,827,-5350.397,12620.421,7465.115,4980.534
23.372528,385,1139,453,485,-1221,861,-5282.598,12726.884,7246.187,5103.802
23.392486,416,1183,562,630,-1198,924,-5230.384,12826.818,7010.447,5234.967
23.412475,418,1283,586,715,-1171,986,-5181.217,12925.444,6767.002,5360.131
23.432861,281,1260,759,670,-1140,1026,-5125.240,13026.540,6516.757,5477.999,622,66,528
23.452453,286,1218,625,634,-1238,1057,-5037.654,13137.677,6272.326,5578.248,622,66,528,30718
23.472442,290,1293,459,358,-1309,995,-4931.645,13252.460,6044.762,5652.209
23.492431,328,1211,544,246,-1290,947,-4824.818,13360.516,5818.655,5726.816
23.512390,349,1185,555,314,-1299,943,-4721.133,13462.928,5594.323,5796.504
23.532776,279,1162,512,234,-1211,926,-4628.197,13558.078,5381.029,5851.346,621,55,532
23.552368,313,1109,480,221,-1110,896,-4537.979,13644.683,5177.216,5904.340
23.572387,290,999,404,224,-1063,844,-4459.624,13719.747,4983.910,5956.203
23.592346,354,978,255,264,-937,796,-4401.737,13777.500,4806.535,6011.477
23.612335,638,992,170,355,-798,715,-4359.300,13814.873,4640.292,6086.781
23.632721,385,1067,588,506,-664,606,-4335.517,13832.055,4467.138,6193.355,609,53,527
23.652313,411,1254,875,805,-692,622,-4309.342,13836.703,4301.066,6317.553
23.672302,350,1400,1060,759,-629,526,-4293.557,13839.872,4164.964,6411.849
23.692291,638,1416,1076,576,-475,462,-4280.033,13850.271,4052.463,6470.262
23.712280,644,1522,1113,299,-337,446,-4296.242,13864.246,3958.067,6487.998
23.732635,419,1485,1094,197,-103,500,-4329.328,13880.279,3873.995,6482.466,593,44,549
23.752258,262,1512,941,52,-20,491,-4362.162,13893.034,3824.648,6462.401
23.772247,195,1433,571,-48,116,260,-4393.791,13886.457,3834.308,6449.374
23.792205,424,1604,415,13,234,-96,-4413.949,13844.651,3883.580,6495.839
23.812194,644,1776,716,438,181,-436,-4424.913,13765.985,3940.371,6620.173
23.832580,727,1910,713,783,88,-591,-4419.351,13681.017,3990.716,6768.214,587,53,546
23.852173,710,2006,662,808,-47,-600,-4388.437,13603.225,4017.573,6927.369
23.872162,693,2224,702,856,-280,-546,-4335.084,13531.367,4016.451,7100.191
23.892151,710,2351,890,931,-449,-462,-4288.802,13458.310,3991.807,7278.803
23.912140,841,2391,1207,1015,-424,-310,-4255.307,13392.481,3941.109,7445.596
23.932495,801,2422,1308,879,-395,-125,-4250.773,13350.005,3888.451,7551.402,593,47,545
23.952087,729,2355,1410,586,-191,83,-4257.749,13333.362,3830.941,7606.073,593,47,545,30722
23.972076,703,2223,1337,259,-160,209,-4253.363,13346.072,3781.699,7610.876
23.992096,671,2311,966,-55,-207,212,-4213.881,13385.716,3746.299,7580.665
24.012085,516,2269,727,-332,-355,106,-4132.467,13430.879,3714.625,7561.163
24.032440,196,2446,537,-228,-616,-55,-4016.524,13455.978,3683.707,7594.073,590,63,531
24.052032,-46,2542,896,118,-730,-244,-3876.722,13442.429,3656.823,7702.934
24.072021,57,2745,1149,503,-880,-493,-3725.533,13403.197,3657.523,7844.276
24.092010,159,2824,1249,586,-823,-696,-3578.586,13358.295,3678.869,7978.160
24.111999,269,2926,1319,445,-665,-717,-3449.427,13326.931,3708.151,8073.376
24.132354,353,2951,1461,270,-592,-587,-3335.594,13318.797,3716.445,8130.616,578,80,521
24.151977,361,2909,1382,-1,-530,-343,-3243.981,13346.896,3707.494,8125.692
24.171966,314,2934,1204,-305,-471,-78,-3161.195,13402.674,3671.924,8082.548
24.191955,-60,2928,1096,-496,-513,121,-3076.134,13473.934,3616.308,8021.736
24.211914,-382,2838,1000,-591,-588,190,-2969.825,13547.689,3562.314,7961.508
24.232299,-400,2765,945,-563,-686,68,-2843.787,13603.444,3530.274,7926.650,577,91,518
24.251953,-63,2838,1185,-350,-706,-169,-2723.852,13629.424,3524.177,7926.856
24.271881,88,2785,1252,-213,-526,-268,-2624.186,13657.731,3517.041,7914.915
24.291870,-46,2591,1180,-346,-474,-113,-2523.349,13715.607,3476.984,7865.167
24.311859,-124,2506,1053,-561,-663,106,-2420.699,13792.406,3407.821,7793.070
24.332214,64,2373,1332,-651,-635,271,-2348.436,13865.423,3327.446,7720.001,550,103,516
24.351806,216,2303,1539,-560,-485,402,-2313.122,13946.725,3235.359,7622.744
24.371795,172,2086,1481,-770,-328,606,-2289.358,14062.713,3125.111,7461.104
24.391815,187,1970,1016,-1198,-362,810,-2249.675,14211.326,2994.304,7242.013
24.411773,13,1765,864,-1488,-423,909,-2227.145,14349.659,2858.699,7027.829
24.432159,-83,1619,997,-1214,-294,931,-2221.392,14454.756,2730.245,6863.428,523,90,524
24.451751,-83,1522,1161,-899,-236,826,-2216.845,14537.664,2621.228,6731.011,523,90,524,30724
24.471740,-38,1431,1231,-769,-201,671,-2209.411,14612.705,2540.198,6600.772
24.491729,9,1363,1176,-786,-141,517,-2200.954,14684.025,2484.104,6465.281
24.511718,85,1299,1028,-858,-66,392,-2196.895,14753.276,2450.071,6320.370
24.532074,164,1200,1021,-856,19,315,-2208.221,14810.900,2428.428,6188.632,518,71,547
24.551696,240,1152,1023,-742,116,278,-2232.634,14858.084,2412.554,6071.878
24.571685,268,1127,1028,-655,177,258,-2260.641,14900.505,2398.148,5962.280
24.591674,261,1096,964,-607,156,253,-2286.204,14939.419,2379.263,5861.875
24.611633,349,1060,970,-541,135,268,-2305.971,14972.819,2354.981,5778.122
24.632019,307,923,1039,-439,71,258,-2315.620,15000.346,2319.989,5716.694,519,31,572
24.651642,318,991,866,-310,-34,278,-2319.493,15028.208,2282.030,5656.916
24.671600,361,841,975,-335,-19,268,-2324.544,15046.185,2240.565,5623.531
24.691589,387,785,1079,-92,-57,267,-2330.883,15058.455,2196.348,5605.480
24.711578,346,820,1007,-85,-67,258,-2331.029,15075.307,2153.571,5576.647
24.731964,321,794,932,-161,-82,254,-2317.700,15092.557,2112.042,5551.369,534,11,583
24.751556,253,704,802,-137,-197,203,-2283.897,15109.953,2072.624,5532.882
24.771545,367,700,595,-115,-294,141,-2226.030,15124.138,2037.636,5530.706
24.791534,359,713,630,6,-451,60,-2167.557,15125.892,1997.388,5563.717
24.811523,294,811,647,222,-401,78,-2117.171,15117.448,1952.595,5621.667
24.831878,295,812,645,376,-401,88,-2065.096,15101.706,1901.692,5700.251,536,-6,586
24.851501,406,836,785,478,-438,101,-2014.933,15081.020,1843.025,5791.509
24.871460,486,950,1088,551,-416,146,-1981.768,15056.102,1775.218,5888.158
24.891449,530,942,1461,598,-330,227,-1965.280,15035.395,1697.739,5968.894
24.911438,529,1026,1518,409,-276,333,-1945.479,15041.046,1611.676,5984.979
24.931823,483,1002,1489,-8,-327,429,-1917.179,15070.185,1514.865,5945.972,534,-25,593
24.951416,543,946,1362,-317,-377,506,-1876.189,15114.942,1411.054,5870.503,534,-25,593,30745
24.971405,572,957,1262,-479,-462,538,-1824.640,15163.729,1297.801,5786.462
24.991394,537,867,1263,-469,-532,578,-1766.983,15203.270,1172.058,5727.135
25.011352,442,924,1314,-238,-579,611,-1709.115,15229.343,1042.119,5700.478
25.031738,219,920,1441,-77,-582,567,-1643.571,15242.921,923.042,5703.986,518,-14,598
25.051361,156,940,1582,107,-619,448,-1557.729,15247.947,825.806,5729.491
25.071350,181,1144,1577,210,-687,273,-1453.584,15252.513,750.579,5754.999
25.091308,82,1093,1545,96,-701,136,-1355.235,15253.949,693.735,5782.262
25.111297,10,1163,1559,248,-643,78,-1252.433,15248.329,644.701,5825.775
25.131652,-32,1186,1726,213,-599,14,-1156.529,15239.794,609.766,5871.520,507,-6,597
25.151275,-63,1227,1924,204,-544,-71,-1068.015,15232.512,591.898,5908.892
25.171264,-363,1509,1880,219,-512,-104,-983.623,15234.127,579.286,5920.617
25.191253,-510,1659,1277,-49,-443,-104,-902.586,15243.359,589.284,5908.765
25.211242,-235,1802,801,-42,-374,-270,-816.238,15229.674,623.887,5952.896
25.231598,-215,1991,1071,349,-384,-409,-747.762,15170.564,659.346,6107.007,500,-8,602
25.251190,-263,2303,1673,1282,-236,-338,-711.409,15068.055,684.602,6357.229
25.271179,-393,2409,1680,1514,-112,-264,-691.027,14971.207,707.414,6581.827
25.291168,-336,2590,1896,1240,-55,-226,-668.417,14888.030,735.678,6767.127
25.311157,-68,2645,2262,1107,-54,-250,-659.340,14825.127,769.745,6901.000
25.331543,-143,2470,2023,524,110,-191,-686.959,14825.722,781.087,6895.751,478,-8,604
25.351135,-155,2244,1497,-273,343,192,-788.807,14860.305,783.326,6809.621
25.371124,472,2265,1584,-533,687,291,-877.301,14893.870,787.048,6724.505
25.391113,651,2061,1282,-504,400,240,-969.030,14930.910,768.012,6631.326
25.411102,653,1922,1053,-558,370,380,-1074.031,14956.063,725.007,6562.960
25.431457,670,2011,1532,-253,508,529,-1199.143,14952.821,673.394,6554.173,474,8,591
25.451049,641,2092,1680,97,493,543,-1305.135,14946.942,619.172,6552.679,474,8,591,30714
25.471100,484,2071,1668,-27,361,491,-1386.552,14956.770,574.733,6517.485
25.491058,561,1893,1521,-265,248,376,-1427.682,14982.937,546.591,6450.582
25.511017,654,1794,1394,-468,109,224,-1447.533,15017.390,531.658,6366.743
25.531402,535,1707,1511,-529,30,134,-1464.606,15048.182,522.773,6290.413,475,31,565
25.550995,444,1739,1604,-437,48,110,-1472.329,15079.612,518.207,6213.247
25.570984,496,1618,1633,-506,10,60,-1471.844,15114.306,521.640,6128.192
25.590973,493,1520,1636,-555,-3,16,-1476.156,15154.628,528.130,6026.169
25.610962,525,1465,1617,-676,52,44,-1486.042,15199.916,531.667,5908.215
25.631317,386,1362,1611,-736,48,86,-1501.604,15245.128,531.307,5786.570,491,15,580
25.650940,363,1242,1468,-733,77,104,-1506.488,15291.173,535.499,5662.083
25.670898,437,1270,1299,-790,-1,20,-1503.246,15333.438,551.552,5545.913
25.690887,591,1225,1554,-605,12,-44,-1498.980,15356.928,565.933,5480.235
25.710907,631,1162,1597,-332,-8,-47,-1498.039,15376.995,567.966,5423.720
25.731262,559,1164,1419,-373,-17,53,-1495.629,15403.134,553.817,5351.195,503,0,584
25.750854,371,1091,1387,-448,-65,128,-1493.278,15426.566,534.336,5285.934
25.770843,247,1029,1337,-345,-49,119,-1483.842,15443.923,526.463,5238.484
25.790832,184,980,1309,-259,-101,0,-1452.439,15457.424,537.645,5206.232
25.810821,154,1049,1307,-176,-181,-155,-1399.905,15465.898,569.672,5192.030
25.831176,68,1113,1365,-84,-262,-320,-1328.242,15467.396,618.929,5200.751,507,-23,604
25.850769,-48,1262,1375,39,-305,-442,-1246.583,15463.324,685.572,5224.659
25.870758,-86,1418,1509,109,-321,-557,-1159.981,15452.717,769.491,5264.151
25.890777,-72,1540,1787,210,-290,-658,-1083.897,15434.886,868.971,5316.935
25.910736,-71,1698,2012,256,-178,-711,-1032.347,15417.056,980.764,5359.309
25.931121,6,1712,2297,166,-9,-718,-996.940,15407.565,1095.751,5371.016,509,-37,604
25.950714,98,1644,1937,-124,63,-668,-971.595,15424.693,1207.104,5302.186,509,-37,604,30712
25.970703,277,1550,1540,-606,92,-582,-938.397,15453.663,1300.673,5200.711
25.990692,285,1409,1219,-622,-26,-471,-893.379,15471.747,1357.169,5140.081
26.010681,143,1464,1122,-265,-175,-295,-846.362,15467.271,1377.174,5156.162
26.031036,75,1422,1312,254,-254,-155,-798.280,15436.668,1371.462,5256.098,498,-36,608
26.050659,-3,1427,1566,698,-348,-77,-747.123,15394.514,1349.318,5391.245
26.070648,-3,1464,1630,767,-378,-7,-682.916,15358.232,1316.427,5510.064
26.090637,27,1385,1384,610,-506,19,-604.385,15336.081,1270.509,5591.116
26.110595,27,1361,1242,350,-565,99,-527.989,15321.366,1209.803,5652.325
26.130981,-79,1321,1153,337,-538,190,-466.998,15304.409,1135.954,5718.569,475,-42,607
26.150573,-110,1357,1201,403,-468,280,-421.178,15283.765,1057.526,5791.910
26.170562,-8,1324,1174,405,-400,320,-383.799,15263.805,977.859,5860.732
26.190551,306,1392,1098,402,-382,351,-362.093,15245.552,889.403,5923.379
26.210540,-95,1325,1108,336,-279,441,-347.584,15230.868,771.442,5978.307
26.230896,-167,1318,1287,320,-240,651,-354.112,15212.538,643.823,6039.390,479,-38,620
26.250518,201,1451,1569,410,-146,701,-369.729,15191.132,522.793,6103.681
26.270507,275,1417,1579,421,-106,662,-400.645,15179.152,401.651,6140.598
26.290466,318,1356,1619,135,-88,717,-438.716,15181.317,271.417,6139.781
26.310486,336,1339,1307,-31,-67,789,-480.177,15192.485,130.887,6113.601
26.330841,154,1348,1234,-152,-79,853,-518.624,15199.499,-9.395,6094.392,466,-3,597
26.350433,261,1358,1510,-74,-74,804,-551.077,15193.693,-131.725,6104.595
26.370422,407,1395,1604,166,-144,664,-557.074,15185.180,-246.526,6121.652
26.390411,535,1309,1409,80,-281,595,-531.922,15185.107,-369.485,6117.884
26.410400,486,1270,1202,-9,-476,601,-491.081,15182.474,-509.068,6117.810
26.430755,415,1339,1296,65,-547,668,-453.409,15167.007,-659.582,6144.649,458,-3,600
26.450378,155,1458,1633,310,-510,726,-428.436,15137.688,-813.200,6200.079,458,-3,600,30681
26.470337,232,1759,1548,378,-424,757,-403.807,15116.318,-955.811,6233.436
26.490326,317,1387,1742,173,-417,674,-387.449,15098.548,-1081.679,6256.927
26.510345,296,1255,1207,237,-359,612,-372.224,15094.363,-1202.803,6245.826
26.530700,98,1198,1094,-91,-305,606,-379.249,15085.659,-1308.798,6245.122,472,3,601
26.550323,-13,1355,1634,124,-111,545,-412.576,15059.419,-1377.635,6291.361
26.570282,457,1388,1997,355,154,365,-456.204,15037.985,-1405.035,6333.418
26.590271,643,1299,1706,126,246,198,-526.629,15044.087,-1420.423,6309.987
26.610260,558,1084,1433,-279,326,260,-595.214,15062.362,-1454.890,6252.175
26.630645,367,1032,1186,-378,200,357,-662.093,15075.907,-1497.230,6202.611,463,4,600
26.650238,203,1188,1328,-236,261,350,-730.864,15071.361,-1521.287,6200.084
26.670227,332,1139,1492,77,331,220,-784.488,15058.939,-1519.052,6224.214
26.690277,581,1184,1190,121,286,39,-837.584,15053.403,-1493.957,6236.749
26.710205,707,1235,1486,55,387,-40,-899.663,15034.214,-1467.742,6280.462
26.730560,691,1277,1816,328,410,5,-970.375,15007.669,-1453.412,6336.503,460,10,598
26.750183,624,1244,1548,268,434,106,-1037.166,14999.553,-1455.817,6344.582
26.770172,469,1175,1113,-82,279,170,-1086.171,15002.036,-1469.956,6327.228
26.790130,175,1162,1098,-79,180,176,-1123.767,14989.179,-1480.652,6348.604
26.810119,141,1102,1454,244,190,95,-1139.200,14960.567,-1473.174,6414.736
26.830475,191,1093,1495,462,125,-71,-1138.665,14939.307,-1445.813,6470.364,475,4,614
26.850097,285,1184,1441,243,92,-197,-1129.778,14931.850,-1405.266,6498.009
26.870086,225,1152,1520,123,66,-250,-1121.623,14929.327,-1362.105,6514.389
26.890075,129,1195,1385,60,64,-245,-1110.014,14934.618,-1316.414,6513.643
26.910064,53,1362,1541,-48,27,-279,-1098.971,14940.861,-1261.375,6512.088
26.930420,49,1602,1392,-28,90,-335,-1084.299,14950.052,-1190.652,6506.767,494,13,601
26.950012,186,1950,1464,-105,59,-442,-1061.681,14954.348,-1106.486,6515.477,494,13,601,30722
26.970001,251,2011,1752,103,99,-510,-1039.949,14946.133,-1018.846,6552.022
26.989990,423,1962,1789,190,102,-507,-1022.824,14942.656,-934.695,6575.153
27.009979,625,1874,1727,46,123,-465,-1011.935,14951.786,-863.036,6565.873
27.030334,680,1534,1382,-192,81,-355,-1004.827,14974.282,-818.564,6521.242,498,20,598
27.049957,547,1459,817,-313,-20,-174,-982.002,14998.881,-813.726,6468.581
27.069946,204,1446,600,-323,-197,-33,-953.949,15000.459,-826.012,6467.560
27.089935,106,1544,808,197,-155,-7,-912.123,14967.099,-830.032,6549.843
27.109924,170,1750,962,641,-224,-146,-852.669,14916.224,-818.172,6674.223
27.130279,201,1795,1037,813,-220,-249,-791.896,14857.888,-795.384,6813.138,502,21,597
27.149871,289,1838,1061,851,-205,-294,-730.105,14803.598,-768.722,6940.096
27.169861,384,1839,1019,734,-200,-303,-674.559,14755.177,-743.575,7050.692
27.189850,464,1844,1033,651,-174,-263,-636.093,14708.526,-726.513,7152.779
27.209839,413,1722,858,634,-96,-157,-615.703,14662.836,-722.848,7248.109
27.230194,417,1699,656,558,-56,-49,-602.252,14615.907,-732.059,7342.484,484,17,601
27.249817,330,1711,731,637,-84,19,-590.020,14549.438,-751.852,7472.342
27.269806,262,1804,947,944,-60,73,-582.004,14464.664,-775.087,7633.442
27.289795,265,1813,1130,1066,-35,83,-573.907,14378.256,-792.935,7793.783
27.309784,318,1886,1192,991,-21,40,-570.137,14301.204,-800.654,7933.781
27.330139,322,1755,1226,879,34,11,-572.611,14234.615,-802.882,8052.245,475,28,590
27.349762,366,1738,986,694,56,7,-579.882,14188.728,-801.166,8132.484
27.369720,447,1636,953,468,77,0,-593.614,14145.079,-796.881,8207.605
27.389740,498,1645,877,507,130,19,-620.842,14102.329,-793.720,8279.149
27.409698,494,1650,957,447,189,67,-656.629,14058.747,-793.706,8350.205
27.430084,479,1710,879,475,194,99,-693.251,14017.028,-795.706,8416.924,477,63,568
27.449676,531,1788,798,418,192,103,-726.443,13974.005,-799.569,8485.021,477,63,568,30708
27.469665,542,1886,922,488,170,106,-760.181,13919.643,-806.392,8570.346
27.489654,624,1937,865,591,183,121,-794.712,13867.559,-812.894,8650.658
27.509674,648,1842,731,496,165,119,-826.815,13819.736,-826.060,8722.634
27.530029,663,1868,611,495,125,157,-851.878,13766.614,-853.133,8801.263,478,91,553
27.549591,686,1924,626,574,35,203,-870.664,13701.311,-894.489,8896.705
27.569610,580,2002,694,708,-17,249,-888.899,13626.068,-944.918,9004.593
27.589569,495,1964,786,762,-21,282,-901.032,13547.795,-995.734,9115.335
27.609558,455,1895,716,795,-59,245,-903.107,13476.979,-1040.326,9214.586
27.629944,517,2009,449,644,-102,174,-889.165,13421.400,-1080.745,9292.084,472,95,535
27.649536,570,1988,268,491,-179,113,-866.140,13365.838,-1121.084,9369.247
27.669525,580,1963,344,631,-199,106,-838.527,13288.449,-1167.336,9475.588
27.689514,583,2101,307,815,-227,126,-810.941,13208.928,-1220.433,9581.887
27.709533,-49,2464,945,745,-240,161,-775.226,13140.862,-1272.369,9671.261
27.729858,410,2384,911,515,-388,19,-646.676,13120.923,-1279.457,9706.782
27.749481,13,2294,977,180,-617,-519,-544.917,13115.026,-1262.953,9723.145,485,137,504
27.769470,206,2395,812,171,-308,-381,-488.396,13137.662,-1256.028,9696.449
27.789459,567,2257,1049,-318,-210,-274,-410.888,13181.764,-1250.444,9640.752
27.809448,142,2078,1057,-416,-344,-262,-363.869,13214.753,-1243.293,9598.310
27.829803,154,1782,1420,-151,-238,-223,-323.316,13246.610,-1244.786,9555.560
27.849395,-14,1957,1087,-326,-194,-107,-299.152,13295.327,-1256.093,9486.962,483,145,485
27.869384,205,1951,1167,-497,-193,-41,-265.869,13354.450,-1276.093,9401.862
27.889373,465,2261,1010,-529,-330,-84,-218.308,13398.959,-1309.333,9334.951
27.909423,502,1962,1233,-363,-378,33,-176.571,13427.194,-1380.696,9284.847
27.949340,435,1911,674,-297,-541,296,-133.987,13484.627,-1505.294,9182.396
27.949676,402,2037,268,-825,-721,458,-100.615,13547.534,-1643.959,9065.706
27.969329,563,2021,573,-569,-653,542,-59.791,13556.309,-1794.694,9024.267,471,137,499,30712
27.989319,549,2047,787,-69,-720,598,-28.598,13541.708,-1955.801,9012.857
28.009308,533,2260,883,17,-655,699,-2.245,13525.492,-2124.484,8999.058
28.029663,372,2232,1305,0,-677,723,23.600,13505.374,-2290.590,8988.489
28.049255,145,2113,1372,18,-632,700,46.921,13508.997,-2440.959,8943.263,455,129,517
28.069244,54,1959,1349,-331,-621,586,85.762,13546.317,-2569.196,8850.118
28.089233,201,1781,1223,-605,-683,379,141.644,13609.743,-2671.977,8720.712
28.109222,339,1560,994,-821,-696,209,204.897,13686.958,-2763.209,8568.857
28.129608,331,1467,704,-924,-721,156,263.353,13763.443,-2855.335,8413.131
28.149170,303,1243,596,-895,-686,192,318.548,13816.200,-2949.423,8291.411,467,117,512
28.169189,450,1332,521,-580,-667,236,375.784,13845.692,-3044.367,8205.050
28.189178,484,1376,718,-372,-620,262,428.762,13846.453,-3145.925,8162.750
28.209137,325,1506,818,-83,-572,369,472.131,13829.694,-3257.228,8145.093
28.229522,16,1505,923,27,-562,443,516.801,13805.737,-3368.300,8137.846
28.249115,-131,1613,1098,72,-527,416,567.562,13784.824,-3459.022,8131.857,461,91,546
28.269104,4,1659,1296,69,-486,269,628.181,13777.527,-3519.587,8113.758
28.289093,348,1694,1307,-45,-492,55,691.841,13788.820,-3558.348,8072.384
28.309082,557,1636,1259,-212,-414,-20,732.224,13812.543,-3598.362,8010.288
28.329467,524,1566,965,-387,-393,67,755.475,13844.273,-3661.868,7924.109
28.349060,514,1468,625,-534,-380,229,763.174,13867.515,-3739.982,7845.862,451,108,539
28.369018,555,1636,474,-373,-352,333,769.508,13864.556,-3823.188,7810.289
28.389038,425,1624,799,-89,-289,392,781.648,13824.782,-3907.428,7837.848
28.408996,346,1819,992,367,-265,442,800.517,13772.314,-3988.083,7887.532
28.429382,195,1917,1180,356,-257,398,824.991,13730.763,-4057.902,7921.767
28.448974,205,1874,1301,244,-300,291,859.208,13708.279,-4112.003,7929.167,438,93,552,30687
28.468963,298,1858,1234,67,-316,161,899.139,13711.013,-4155.871,7897.078
28.488952,269,1732,978,-230,-380,58,931.858,13734.864,-4195.940,7830.369
28.508941,309,1675,794,-408,-339,42,956.949,13766.281,-4231.705,7752.539
28.529327,313,1637,900,-446,-305,28,978.033,13787.422,-4261.512,7695.804
28.548919,391,1600,1132,-245,-243,37,999.007,13796.415,-4289.211,7661.528,449,106,551
28.568908,512,1524,1245,-168,-213,61,1008.174,13808.683,-4324.027,7618.535
28.588867,518,1387,1151,-299,-199,136,1002.167,13829.146,-4375.848,7552.336
28.608856,448,1267,1049,-439,-216,246,998.866,13848.512,-4448.977,7474.157
28.629242,526,1805,670,-489,-343,319,992.801,13876.887,-4525.254,7375.897
28.648834,374,1763,1160,-547,-293,284,1000.541,13873.083,-4592.357,7340.448,435,80,547
28.668823,295,1768,1368,-62,-299,293,1039.317,13864.665,-4660.540,7307.918
28.688812,314,1686,1543,-128,-472,190,1081.680,13869.777,-4715.041,7256.933
28.708801,395,1984,1385,-293,-368,101,1100.400,13901.687,-4754.412,7166.813
28.729187,450,1987,1536,-582,-317,38,1111.253,13938.656,-4790.732,7068.473
28.748779,348,1596,1359,-568,-281,69,1110.172,13980.286,-4835.901,6954.754,435,71,570
28.768768,336,1402,896,-751,-295,121,1098.326,14030.028,-4883.719,6821.782
28.788757,430,1241,841,-805,-243,123,1087.797,14062.985,-4926.910,6723.849
28.808746,398,1044,1137,-455,-202,154,1085.426,14065.186,-4974.339,6684.593
28.829101,403,1073,1193,-142,-161,247,1077.409,14061.912,-5028.981,6651.811
28.848694,391,1104,1111,-200,-146,295,1070.457,14056.383,-5090.885,6617.442,429,55,572
28.868683,442,1092,1309,-172,-197,309,1075.293,14040.766,-5156.114,6599.284
28.888672,485,1219,1420,-10,-241,341,1086.511,14023.398,-5231.871,6574.706
28.908661,488,1220,1376,-156,-304,379,1090.545,14011.098,-5315.394,6533.136
28.929046,455,1351,1435,-162,-318,423,1096.220,13993.713,-5404.837,6495.957
28.948639,487,1377,1490,-144,-317,451,1103.647,13974.318,-5498.142,6458.038,428,54,589,30667
28.968628,559,1439,1320,-203,-338,457,1104.450,13957.509,-5595.220,6410.700
28.988586,580,1545,1343,-205,-315,503,1101.846,13928.373,-5697.406,6384.462
29.008606,608,1622,1585,-56,-256,570,1088.905,13884.706,-5800.202,6389.235
29.028961,734,1521,1823,114,-150,640,1066.864,13834.119,-5909.219,6402.774
29.048584,805,1365,1544,50,-147,709,1037.220,13791.038,-6039.873,6378.621,434,55,588
29.068573,725,1165,1385,-216,-273,800,1017.943,13743.531,-6192.036,6338.239
29.088531,581,1117,1395,-128,-412,876,1022.363,13680.648,-6355.327,6311.886
29.108520,514,1200,1528,28,-499,891,1046.091,13607.969,-6516.566,6300.687
29.128967,389,1256,1751,153,-538,846,1089.575,13529.793,-6670.307,6300.790
29.148498,245,1334,1625,242,-601,786,1146.942,13460.135,-6814.745,6285.218,437,60,593
29.168487,166,1358,1621,129,-668,664,1218.130,13400.108,-6938.046,6265.158
29.188476,211,1483,1724,208,-668,504,1300.495,13344.693,-7033.625,6260.307
29.208465,257,1485,1829,298,-593,356,1388.120,13293.970,-7108.066,6265.326
29.228820,305,1465,1772,303,-573,254,1472.659,13254.838,-7173.347,6254.523
29.248443,330,1413,1600,182,-584,196,1552.235,13224.303,-7235.858,6227.855,440,61,589
29.268432,260,1340,1515,96,-571,174,1626.612,13194.407,-7293.511,6204.988
29.288391,211,1302,1487,140,-524,167,1698.505,13162.641,-7342.790,6195.064
29.308380,235,1290,1530,215,-445,137,1765.726,13131.599,-7379.782,6198.190
29.328766,334,1344,1539,239,-368,86,1820.948,13105.923,-7406.111,6205.150
29.348358,382,1320,1557,219,-278,69,1866.495,13081.321,-7429.655,6215.376,421,71,582
29.368347,425,1392,1537,195,-231,86,1901.636,13059.027,-7454.680,6221.636
29.388336,434,1400,1547,147,-209,103,1932.584,13036.422,-7482.593,6225.997
29.408325,414,1426,1523,129,-213,125,1966.122,13015.123,-7514.347,6221.814
29.428680,366,1361,1515,81,-273,115,2002.440,12998.578,-7546.116,6206.348
29.448303,349,1335,1310,23,-281,82,2035.564,12988.582,-7571.515,6185.532,420,67,576
29.468292,331,1374,1279,5,-268,30,2073.469,12978.999,-7585.053,6176.465,420,67,576,30724
29.488250,310,1442,1418,122,-213,-25,2119.069,12966.178,-7586.565,6186.052
29.508239,333,1420,1438,210,-187,-71,2166.226,12956.587,-7579.986,6197.868
29.528625,353,1361,1287,193,-169,-113,2209.726,12950.301,-7568.169,6210.077
29.548217,402,1392,1246,206,-131,-130,2251.219,12941.483,-7550.845,6234.597,418,78,570
29.568206,385,1442,1260,290,-72,-125,2293.547,12925.223,-7529.719,6278.296
29.588195,412,1484,1365,396,-39,-111,2334.453,12906.595,-7505.753,6330.026
29.608184,420,1556,1313,390,7,-113,2369.510,12891.120,-7479.946,6378.895
29.628540,396,1609,1328,368,6,-123,2404.712,12875.998,-7453.882,6426.593
29.648163,371,1570,1288,354,4,-123,2439.851,12863.218,-7428.539,6468.151,404,78,566
29.668152,361,1575,1257,313,-18,-135,2476.663,12853.572,-7402.146,6503.497
29.688110,400,1548,1236,285,-28,-162,2514.274,12846.308,-7373.408,6535.983
29.708130,425,1557,1279,281,-34,-176,2552.805,12837.853,-7347.673,6566.570
29.728485,414,1572,1262,268,-61,-150,2592.586,12827.328,-7330.800,6590.368
29.748077,370,1558,1194,235,-114,-110,2633.411,12815.340,-7324.483,6604.513,411,83,556
29.768066,350,1577,1132,180,-163,-74,2673.274,12802.339,-7325.022,6613.109
29.788055,327,1574,1120,164,-178,-45,2714.705,12785.411,-7329.460,6624.052
29.808044,345,1615,1098,197,-195,-19,2758.086,12764.739,-7337.635,6636.939
29.828399,328,1641,1048,204,-201,6,2800.844,12740.336,-7349.363,6652.924
29.848022,279,1668,1037,230,-212,39,2845.748,12710.260,-7364.939,6674.138,404,97,540
29.867981,269,1694,1020,270,-216,70,2893.206,12676.084,-7382.435,6699.354
29.888000,230,1677,1045,295,-225,80,2942.114,12639.090,-7399.019,6729.585
29.907959,233,1713,1059,328,-208,84,2988.138,12602.319,-7414.572,6761.075
29.928344,189,1709,1105,325,-197,88,3032.548,12566.000,-7429.949,6791.951
29.947937,182,1719,1076,300,-185,88,3071.381,12533.289,-7443.719,6819.806,398,99,537
29.967926,157,1694,1137,272,-160,75,3106.179,12502.744,-7454.560,6848.212,398,99,537,30697
29.987915,178,1695,1134,257,-119,73,3135.028,12476.579,-7463.226,6873.301
30.007904,169,1690,1173,234,-106,59,3163.488,12451.536,-7469.081,6899.263
30.028259,202,1705,1184,237,-94,45,3191.571,12428.223,-7472.966,6924.113
30.047851,199,1710,1207,230,-101,30,3223.337,12405.539,-7477.092,6945.590,385,114,531
30.067871,195,1666,1218,213,-125,19,3255.558,12387.027,-7481.825,6958.494
30.087860,181,1652,1151,160,-148,-3,3287.627,12372.679,-7486.845,6963.540
30.107818,206,1668,1169,134,-158,-19,3321.472,12357.536,-7491.330,6969.543
30.128204,202,1680,1233,155,-158,-16,3354.202,12341.699,-7496.117,6976.779
30.147796,198,1678,1248,140,-153,-9,3383.773,12328.077,-7502.754,6979.450,381,116,516
30.167785,196,1700,1229,107,-151,-6,3409.386,12317.345,-7510.703,6977.383
30.187774,193,1679,1272,68,-147,-4,3433.181,12308.354,-7518.914,6972.736
30.207763,201,1662,1322,46,-144,-9,3453.304,12303.370,-7527.865,6961.930
30.228149,218,1669,1293,-11,-145,-15,3468.214,12303.090,-7539.233,6942.685
30.247741,201,1655,1310,-71,-147,-12,3479.189,12304.545,-7554.061,6918.454,388,128,518
30.267730,193,1623,1309,-107,-148,9,3484.613,12308.628,-7571.862,6888.938
30.287719,209,1601,1287,-155,-133,16,3483.824,12315.496,-7589.032,6858.101
30.307708,206,1594,1259,-171,-101,17,3477.757,12324.681,-7604.525,6827.449
30.328064,204,1615,1236,-186,-72,16,3466.611,12335.142,-7617.339,6799.885
30.347747,182,1617,1261,-175,-29,20,3450.957,12345.076,-7625.808,6780.299,392,126,519
30.367645,221,1650,1246,-150,25,18,3430.797,12356.635,-7628.066,6766.922
30.387634,198,1604,1345,-128,80,2,3406.669,12368.004,-7624.320,6762.563
30.407623,251,1635,1245,-97,125,4,3373.900,12383.288,-7618.747,6757.299
30.428009,217,1584,1197,-154,175,0,3335.629,12398.686,-7610.072,6757.840
30.447601,259,1611,1167,-103,215,13,3295.283,12413.083,-7598.471,6764.254,392,122,524
30.467590,273,1608,1219,-95,248,7,3253.666,12424.435,-7582.360,6781.617,392,122,524,30744
30.487579,275,1648,1198,-18,285,18,3210.425,12436.078,-7563.693,6801.699
30.507538,285,1645,1190,-47,301,3,3166.486,12449.829,-7541.647,6821.591
30.527923,323,1620,1126,-27,306,-17,3128.646,12462.663,-7515.892,6844.004
30.547516,345,1661,1190,9,288,-45,3100.205,12472.186,-7488.522,6869.554,382,122,531
30.567505,324,1645,1188,60,247,-57,3080.730,12478.414,-7463.841,6893.822
30.587494,329,1670,1207,59,185,-57,3068.107,12484.982,-7443.530,6909.503
30.607483,340,1632,1185,36,132,-67,3061.655,12491.052,-7427.245,6918.913
30.627868,317,1632,1153,18,73,-65,3059.776,12497.060,-7414.603,6922.453
30.647461,304,1642,1177,12,36,-69,3064.093,12499.684,-7404.112,6927.033,391,120,530
30.667450,266,1652,1145,46,6,-60,3073.341,12500.262,-7396.022,6930.535
30.687408,257,1676,1161,41,-22,-63,3085.990,12501.360,-7387.549,6931.971
30.707428,228,1676,1135,46,-36,-77,3101.934,12503.567,-7377.630,6931.437
30.727783,273,1694,1074,40,-50,-101,3122.426,12505.482,-7365.964,6931.188
30.747406,282,1700,1043,70,-70,-111,3149.233,12502.240,-7355.205,6936.333,405,113,532
30.767364,241,1736,1089,125,-91,-94,3181.077,12493.783,-7346.313,6946.457
30.787353,225,1728,1161,166,-111,-84,3216.373,12482.285,-7339.548,6958.014
30.807342,252,1739,1174,162,-131,-72,3247.585,12473.919,-7337.085,6961.117
