;Title, http://www.gcdataconcepts.com, HAM-IMU+alt, MPU9250 BMP280
;Version, 1379, Build date, Jan 12 2018,  SN:CCDC50029F4C138
;Start_time, 2018-06-20, 13:21:12.256
;Temperature, -999.00, deg C,  Vbat, 4088, mv
;MPU SR, 200,Hz,  Accel sens, 2048,counts/g, Gyro sens, 16,counts/dps,  Mag SR, 10,Hz,  Mag sens, 1666,counts/mT
;BMP280 SI, 0.500,s 
;Deadband, 0, counts
;DeadbandTimeout, 5,sec
;Time, Ax, Ay, Az, Gx, Gy, Gz, Qw, Qx, Qy, Qz, Mx, My, Mz, P, T
0.007965,269,1706,-1007,459,210,45,-4421.603,8433.924,925.322,13300.284
0.012391,190,1675,-1050,492,341,103,-4469.604,8344.961,942.317,13339.105,108,-199,-323
0.032410,145,1674,-1105,527,330,76,-4506.503,8250.046,953.094,13384.888
0.052369,109,1664,-1113,595,256,22,-4527.360,8144.915,954.097,13442.042
0.072724,109,1549,-1081,690,173,-49,-4534.337,8029.218,939.557,13510.148
0.092347,112,1522,-1070,793,62,-73,-4529.457,7901.560,912.986,13588.644
0.112336,84,1468,-974,897,5,-123,-4514.101,7767.145,872.813,13673.623,106,-204,-337
0.132325,74,1434,-1051,938,-101,-140,-4484.300,7635.618,821.937,13760.387
0.152283,102,1399,-1119,931,-167,-198,-4441.968,7511.759,764.858,13845.318
0.172669,345,1528,-1166,878,-264,-225,-4389.416,7394.840,694.015,13928.501
0.192261,324,1554,-1117,872,-358,-214,-4339.687,7285.277,620.130,14005.096
0.212250,298,1586,-1136,819,-294,-203,-4296.793,7174.017,548.731,14078.543,111,-213,-353,98504,26150
0.232239,248,1578,-1241,823,-317,-127,-4263.107,7070.738,474.967,14143.564
0.252228,323,1387,-1310,751,-279,-82,-4237.690,6971.778,406.382,14202.344
0.272583,236,1449,-1112,721,-275,-53,-4208.016,6885.422,334.817,14255.066
0.292206,119,1436,-1129,621,-324,-65,-4173.842,6805.802,268.644,14304.662
0.312165,281,1395,-1327,621,-292,-88,-4132.693,6731.758,205.140,14352.617,105,-227,-377
0.332154,279,1428,-1206,579,-356,-124,-4088.227,6669.719,135.250,14395.082
0.352143,255,1393,-1079,442,-361,-129,-4045.129,6631.912,72.380,14425.147
0.372498,329,1333,-1048,298,-373,-107,-4000.888,6621.063,15.994,14442.631
0.392121,325,1276,-1061,111,-368,-129,-3951.954,6636.247,-28.447,14449.114
0.412110,228,1310,-1191,-49,-361,-169,-3896.779,6673.962,-63.401,14446.617,101,-230,-399
0.432068,148,1464,-1129,-196,-346,-211,-3835.069,6730.342,-92.827,14436.813
0.452057,257,1525,-1019,-299,-398,-235,-3766.655,6799.156,-134.934,14422.240
0.472443,254,1565,-1007,-315,-499,-219,-3696.492,6863.900,-181.088,14409.215
0.492035,280,1665,-922,-254,-479,-225,-3629.992,6916.265,-229.632,14400.387
0.512085,303,1657,-830,-175,-482,-181,-3575.162,6958.364,-283.614,14392.859,108,-249,-413
0.532013,344,1611,-863,-115,-424,-106,-3539.506,6986.060,-329.595,14387.274
0.552002,274,1578,-793,-61,-315,-22,-3527.096,7009.421,-367.345,14378.042
0.572358,254,1553,-709,-94,-207,83,-3535.361,7035.858,-400.304,14362.211
0.591950,254,1482,-663,-128,-172,177,-3555.256,7061.110,-430.152,14344.033
0.611939,199,1438,-653,-103,-103,198,-3577.191,7078.386,-446.851,14329.546,108,-240,-413
0.631928,219,1361,-620,-72,-44,159,-3592.677,7084.986,-458.074,14322.055
0.651917,272,1417,-637,25,-29,96,-3598.169,7071.421,-462.345,14327.242
0.672333,456,1366,-828,124,32,3,-3591.810,7059.402,-454.339,14335.018
0.691895,501,1553,-974,55,80,-95,-3577.942,7052.740,-421.480,14342.768
0.711884,773,1974,-1309,-26,134,-203,-3540.193,7082.589,-378.604,14338.621,125,-240,-418,98507,26150
0.731873,897,2075,-2141,-301,104,-357,-3501.078,7128.700,-301.048,14327.208
0.751831,665,2130,-1974,-328,350,-383,-3482.064,7137.449,-222.293,14328.924
0.772187,868,2585,-2033,-68,260,-250,-3470.842,7138.606,-168.037,14331.809
0.791809,1060,2965,-2702,-95,294,-189,-3476.102,7148.981,-85.434,14326.092
0.811798,1001,2944,-2733,-200,491,-165,-3502.877,7150.044,3.756,14319.293,129,-239,-412
0.831787,997,3047,-2387,-124,397,-69,-3525.699,7139.424,55.736,14318.882
0.851746,1248,3126,-2308,56,335,-15,-3554.011,7115.608,108.085,14323.438
0.872132,620,2233,-2435,50,452,6,-3616.799,7072.802,196.154,14327.986
0.891724,119,1495,-2073,204,737,113,-3692.476,6984.015,277.646,14350.871
0.911713,31,1233,-1556,479,627,158,-3757.427,6872.758,327.270,14386.635,129,-222,-410
0.931702,69,868,-1119,598,491,142,-3811.337,6763.766,363.490,14423.193
0.951691,123,862,-955,534,402,133,-3857.717,6680.001,393.579,14449.088
0.972046,241,854,-1051,380,355,89,-3887.371,6626.876,437.856,14464.321
0.991669,280,838,-1258,168,365,-29,-3902.840,6590.665,495.359,14474.841
1.011658,417,1136,-1279,111,366,-101,-3911.223,6569.463,548.655,14480.293,108,-233,-415
1.031617,490,1433,-1383,-23,278,-70,-3931.938,6571.877,601.813,14471.474
1.051606,449,1582,-1483,-149,366,24,-3974.377,6586.760,665.867,14450.293
1.071991,464,1675,-1581,-232,424,136,-4038.724,6606.077,730.757,14420.467
1.091584,380,1690,-1584,-238,485,259,-4122.893,6617.291,795.324,14388.054
1.111573,274,1610,-1570,-176,527,347,-4218.059,6616.140,855.027,14357.543,99,-235,-415
1.131531,251,1520,-1553,-93,528,399,-4316.378,6602.938,903.082,14331.433
1.151520,282,1433,-1484,-10,464,425,-4409.547,6582.314,937.198,14310.350
1.171906,317,1408,-1500,48,405,398,-4493.548,6553.552,966.954,14295.433
1.191498,370,1372,-1512,105,385,343,-4571.444,6518.752,993.580,14284.817
1.211487,407,1384,-1513,143,368,322,-4646.521,6480.050,1016.875,14276.561,96,-233,-411,98508,26150
1.231476,429,1388,-1449,161,348,315,-4721.787,6443.535,1036.762,14266.960
1.251465,454,1385,-1472,134,340,332,-4801.237,6412.741,1058.700,14252.700
1.271820,454,1425,-1486,91,350,369,-4891.392,6385.582,1081.596,14232.505
1.291413,497,1469,-1483,73,401,438,-4993.222,6364.635,1107.838,14204.481
1.311402,468,1541,-1484,4,420,500,-5108.396,6347.750,1146.215,14167.991,96,-237,-406
1.331391,441,1564,-1439,-35,543,562,-5240.272,6331.274,1196.022,14123.013
1.351380,400,1569,-1417,-64,620,638,-5385.921,6314.138,1250.343,14071.091
1.371735,343,1576,-1351,-69,648,708,-5541.108,6297.446,1301.563,14013.552
1.391327,444,1809,-1358,-73,648,769,-5700.312,6290.416,1350.261,13948.094
1.411347,199,2057,-1731,-160,651,795,-5868.651,6280.539,1430.595,13874.530,98,-241,-412
1.431336,178,1835,-1642,-152,963,762,-6049.621,6263.428,1513.930,13795.470
1.451294,125,1695,-1624,-150,774,905,-6237.100,6249.658,1571.281,13711.559
1.471680,107,1450,-1635,-125,747,968,-6427.136,6231.187,1619.293,13626.355
1.491272,154,1227,-1451,-77,708,999,-6618.946,6212.169,1649.600,13539.304
1.511261,261,1183,-1183,-66,611,1058,-6811.358,6204.898,1667.523,13444.681,96,-240,-399
1.531220,394,1292,-990,-157,553,1099,-7001.361,6225.182,1697.081,13333.544
1.551239,424,1554,-986,-388,592,1106,-7194.971,6273.313,1760.703,13198.988
1.571595,316,1777,-1196,-634,756,1126,-7398.555,6327.194,1865.408,13045.447
1.591187,161,1838,-1481,-735,962,1128,-7606.744,6368.113,1988.266,12886.691
1.611176,92,1746,-1566,-667,1027,1112,-7810.481,6386.068,2093.344,12738.440,103,-221,-399
1.631165,148,1605,-1485,-461,919,1091,-8002.452,6386.053,2159.277,12607.618
1.651123,152,1518,-1426,-262,748,1060,-8181.326,6373.948,2198.297,12491.662
1.671509,213,1512,-1389,-141,651,1000,-8347.122,6356.670,2224.235,12385.738
1.691101,287,1482,-1397,-94,581,941,-8505.669,6336.525,2249.493,12283.210
1.711090,296,1476,-1369,-100,609,913,-8665.698,6317.595,2285.430,12173.985,131,-212,-373,98507,26150
1.731141,371,1516,-1400,-175,670,929,-8829.957,6302.709,2332.932,12054.069
1.751068,293,1521,-1445,-233,727,949,-8996.473,6285.814,2393.352,11927.251
1.771424,205,1493,-1448,-256,811,935,-9159.500,6253.969,2463.278,11805.047
1.791016,110,1512,-1506,-201,853,852,-9308.136,6210.620,2535.324,11695.912
1.811005,127,1470,-1515,-135,826,725,-9437.289,6158.106,2599.272,11605.797,142,-197,-358
1.830994,154,1427,-1506,-45,762,596,-9551.496,6094.606,2656.990,11532.585
1.850983,166,1362,-1501,35,736,498,-9656.796,6023.335,2709.746,11469.892
1.871338,82,1365,-1435,86,720,445,-9758.084,5949.114,2760.459,11410.659
1.890961,187,1460,-1502,80,697,434,-9853.123,5885.928,2811.714,11349.076
1.910950,349,1538,-1528,12,661,428,-9945.868,5831.060,2867.666,11282.303,147,-192,-360
1.930939,431,1547,-1554,-42,659,439,-10038.739,5778.027,2929.571,11211.207
1.950928,367,1515,-1541,-63,717,430,-10134.099,5720.073,2997.935,11136.814
1.971283,292,1490,-1455,-65,731,447,-10228.015,5667.505,3057.477,11061.391
1.990876,278,1454,-1552,-60,658,461,-10315.978,5618.289,3114.234,10988.739
2.010865,297,1437,-1522,-67,632,419,-10395.684,5574.378,3166.762,10920.765,161,-192,-353
2.030854,381,1387,-1472,-77,556,395,-10468.184,5540.132,3212.060,10855.513
2.050843,386,1392,-1417,-89,484,386,-10536.125,5512.759,3254.285,10790.950
2.071198,372,1424,-1443,-113,452,373,-10596.773,5492.915,3301.233,10727.235
2.090821,469,1531,-1654,-179,426,333,-10646.363,5484.832,3352.982,10666.045
2.110779,457,1582,-1733,-244,362,281,-10684.298,5486.829,3402.296,10611.328,158,-192,-353
2.130768,462,1545,-1651,-257,275,233,-10713.757,5491.257,3437.602,10567.868
2.150757,462,1466,-1521,-162,188,191,-10737.125,5494.529,3453.977,10537.067
2.171143,446,1398,-1474,-86,102,160,-10755.125,5498.395,3461.474,10514.208
2.190735,369,1323,-1475,-60,58,123,-10763.262,5503.925,3463.042,10502.465
2.210724,373,1311,-1527,-35,-18,37,-10754.863,5512.402,3457.437,10508.468,164,-188,-368,98511,26150
2.230713,403,1320,-1528,-2,-111,-79,-10729.027,5523.864,3443.766,10533.319
2.250702,414,1354,-1559,27,-211,-193,-10687.150,5539.934,3423.315,10574.039
2.271057,423,1407,-1623,39,-295,-281,-10631.391,5562.451,3396.178,10627.044
2.290650,442,1433,-1622,47,-392,-356,-10561.831,5592.060,3362.004,10691.536
2.310639,439,1446,-1567,52,-484,-429,-10477.461,5628.026,3321.761,10767.984,175,-187,-351
2.330628,450,1428,-1551,61,-566,-509,-10379.901,5667.244,3275.260,10855.786
2.350586,420,1398,-1518,90,-636,-583,-10270.704,5705.860,3221.748,10954.979
2.370972,405,1428,-1464,121,-695,-657,-10148.484,5745.338,3163.350,11064.719
2.390595,391,1427,-1517,142,-755,-732,-10013.168,5784.160,3101.352,11184.677
2.410553,400,1429,-1444,167,-796,-814,-9865.913,5820.246,3035.339,11314.179,170,-185,-346
2.430542,362,1449,-1475,199,-837,-888,-9706.364,5854.167,2966.204,11452.174
2.450531,338,1497,-1464,224,-875,-964,-9534.744,5886.345,2892.979,11597.659
2.470887,331,1479,-1487,244,-931,-1014,-9353.124,5916.536,2813.493,11748.760
2.490509,292,1475,-1449,283,-955,-1067,-9162.309,5941.632,2730.127,11905.080
2.510468,283,1482,-1455,307,-992,-1117,-8959.901,5967.397,2645.897,12064.203,163,-190,-342
2.530457,267,1469,-1448,292,-1016,-1171,-8747.077,5993.362,2561.575,12224.647
2.550446,279,1486,-1441,289,-1044,-1217,-8523.833,6018.617,2475.056,12386.689
2.570832,279,1493,-1467,297,-1070,-1265,-8290.314,6041.269,2387.278,12550.302
2.590424,263,1510,-1422,308,-1091,-1311,-8048.064,6061.614,2296.585,12714.033
2.610413,273,1550,-1389,322,-1111,-1339,-7799.250,6078.945,2203.341,12876.290,144,-202,-356
2.630402,311,1545,-1385,336,-1127,-1356,-7546.542,6092.821,2106.870,13035.481
2.650360,312,1577,-1363,355,-1135,-1355,-7291.542,6102.856,2007.755,13190.637
2.670746,308,1607,-1387,361,-1134,-1357,-7033.757,6109.843,1909.111,13341.170
2.690339,314,1629,-1404,366,-1123,-1356,-6775.804,6113.829,1809.183,13485.987
2.710328,345,1653,-1373,373,-1118,-1335,-6520.212,6114.809,1706.311,13624.239,132,-202,-369,98507,26150
2.730317,389,1672,-1447,381,-1116,-1301,-6270.519,6113.075,1601.385,13754.341
2.750275,441,1648,-1495,382,-1102,-1238,-6034.339,6110.446,1494.049,13872.723
2.770630,471,1558,-1400,364,-1067,-1128,-5817.745,6112.017,1386.919,13975.299
2.790223,455,1432,-1348,304,-1005,-990,-5624.055,6122.728,1286.628,14059.240
2.810212,385,1402,-1404,203,-932,-860,-5444.700,6144.239,1195.532,14128.330,114,-217,-380
2.830231,321,1333,-1388,110,-878,-802,-5267.600,6173.539,1109.955,14189.547
2.850190,329,1331,-1423,61,-884,-804,-5083.721,6207.348,1026.532,14248.027
2.870545,343,1408,-1320,24,-899,-843,-4892.562,6244.551,945.098,14304.218
2.890168,260,1621,-1471,0,-905,-874,-4698.446,6283.484,879.506,14356.334
2.910126,220,1791,-1547,-45,-791,-922,-4504.755,6323.264,823.284,14404.206,92,-233,-402
2.930115,221,1704,-1526,-58,-796,-902,-4317.104,6359.913,760.442,14448.920
2.950165,212,1564,-1414,-19,-814,-837,-4138.707,6387.669,690.857,14492.306
2.970490,130,1484,-1418,39,-783,-793,-3964.229,6405.486,625.194,14536.134
2.990082,21,1355,-1573,73,-755,-805,-3780.846,6420.912,562.525,14580.675
3.010071,29,1310,-1503,63,-780,-873,-3580.536,6434.797,489.934,14627.664,92,-242,-409
3.030060,77,1387,-1504,93,-896,-937,-3363.002,6448.747,407.941,14675.588
3.050049,127,1440,-1513,91,-963,-1004,-3135.473,6467.583,321.829,14719.750
3.070404,148,1493,-1469,55,-1002,-1023,-2906.291,6490.192,234.024,14758.440
3.089997,161,1610,-1429,27,-1001,-1010,-2682.989,6516.738,151.022,14790.075
3.109986,160,1675,-1432,-19,-947,-978,-2472.292,6547.685,76.183,14813.684,86,-255,-424
3.129975,146,1719,-1398,-55,-872,-910,-2280.120,6578.326,7.269,14831.118
3.149964,155,1750,-1365,-58,-803,-810,-2110.006,6603.155,-58.373,14845.142
3.170319,191,1703,-1338,-28,-735,-694,-1962.656,6619.531,-120.490,14857.682
3.189942,156,1683,-1364,15,-652,-592,-1834.037,6630.060,-182.713,14868.781
3.209900,189,1626,-1410,36,-611,-501,-1718.859,6635.289,-243.841,14879.329,82,-259,-422,98509,26150
3.229889,186,1576,-1416,55,-585,-441,-1611.927,6636.478,-309.527,14889.542
3.249878,132,1532,-1393,79,-588,-394,-1509.277,6631.783,-372.805,14900.939
3.270264,129,1506,-1481,103,-551,-400,-1403.885,6624.324,-432.231,14912.949
3.289856,74,1452,-1501,119,-554,-425,-1294.731,6611.888,-490.906,14926.522
3.309845,67,1521,-1502,151,-558,-446,-1178.127,6594.592,-549.113,14941.796,86,-272,-433
3.329804,64,1553,-1504,176,-579,-487,-1055.348,6573.843,-608.633,14957.802
3.349793,78,1570,-1504,193,-594,-511,-928.216,6551.994,-669.640,14973.203
3.370179,60,1569,-1508,195,-614,-523,-800.613,6529.039,-733.768,14987.584
3.389771,60,1548,-1493,208,-624,-511,-675.558,6503.073,-800.593,15001.605
3.409760,103,1535,-1467,224,-635,-485,-555.037,6472.962,-870.878,15015.649,82,-273,-448
3.429749,116,1522,-1466,241,-636,-447,-442.095,6441.307,-942.527,15028.679
3.449707,127,1491,-1467,244,-621,-403,-335.642,6408.234,-1015.381,15040.822
3.470093,127,1504,-1478,244,-617,-371,-233.803,6375.883,-1087.902,15051.424
3.489716,155,1504,-1490,228,-603,-353,-135.655,6346.795,-1157.826,15059.703
3.509674,136,1469,-1554,204,-576,-343,-41.369,6319.081,-1225.380,15066.565,89,-276,-455
3.529663,150,1453,-1561,198,-559,-327,50.781,6291.557,-1291.435,15072.537
3.549652,116,1435,-1601,190,-552,-324,144.375,6267.707,-1355.230,15076.266
3.570038,134,1423,-1584,159,-548,-347,243.202,6248.206,-1420.601,15077.072
3.589692,132,1468,-1584,132,-577,-375,347.336,6232.031,-1485.364,15075.486
3.609620,137,1486,-1540,118,-578,-403,453.422,6219.408,-1548.674,15071.510
3.629578,150,1515,-1500,94,-566,-413,557.800,6210.089,-1609.183,15065.511,102,-291,-456
3.649567,167,1569,-1497,68,-550,-405,656.780,6203.817,-1667.385,15057.774
3.669922,187,1579,-1485,56,-521,-376,746.135,6198.860,-1723.886,15049.288
3.689576,217,1580,-1419,46,-489,-320,823.347,6192.990,-1778.947,15041.268
3.709534,213,1575,-1403,46,-451,-257,887.020,6185.492,-1831.250,15034.455,102,-291,-456,98505,26150
3.729523,239,1569,-1396,57,-408,-188,937.195,6175.859,-1880.826,15029.250,108,-297,-469
3.749512,216,1549,-1446,61,-359,-125,975.866,6165.660,-1926.457,15025.196
3.769867,218,1563,-1451,56,-314,-82,1006.356,6154.703,-1967.259,15022.390
3.789460,275,1580,-1490,63,-274,-53,1031.978,6141.643,-2003.834,15021.162
3.809449,282,1561,-1547,74,-249,-38,1053.099,6127.751,-2035.520,15021.110
3.829438,269,1515,-1557,79,-199,-25,1070.799,6112.091,-2061.367,15022.714,109,-306,-465
3.849427,299,1472,-1554,88,-171,-25,1088.600,6095.385,-2083.588,15025.156
3.869782,290,1429,-1528,98,-153,-35,1107.542,6077.377,-2102.921,15028.373
3.889405,281,1404,-1445,104,-151,-46,1128.685,6060.947,-2122.167,15030.729
3.909363,325,1411,-1437,82,-156,-66,1152.739,6050.940,-2140.702,15030.307
3.929352,327,1403,-1446,45,-148,-86,1177.589,6047.894,-2156.004,15027.420,126,-301,-470
3.949341,337,1421,-1441,7,-134,-103,1202.333,6050.426,-2169.034,15022.565
3.969696,333,1430,-1467,-21,-119,-109,1227.657,6055.783,-2180.129,15016.751
3.989319,346,1475,-1426,-31,-116,-121,1255.611,6062.648,-2190.311,15010.187
4.009308,353,1478,-1422,-37,-121,-140,1286.295,6071.296,-2200.101,15002.660
4.029267,334,1536,-1421,-44,-121,-155,1319.798,6082.472,-2210.258,14993.727,123,-319,-478
4.049256,344,1528,-1429,-60,-125,-174,1355.733,6096.493,-2221.261,14983.197
4.069641,370,1537,-1483,-78,-141,-185,1393.551,6111.713,-2233.241,14971.742
4.089234,349,1542,-1447,-79,-144,-192,1433.663,6123.326,-2246.043,14961.290
4.109223,327,1554,-1392,-51,-169,-201,1479.154,6131.924,-2260.782,14951.117
4.129212,314,1544,-1431,-33,-183,-231,1531.523,6139.441,-2276.465,14940.376,133,-310,-470
4.149201,308,1552,-1437,-21,-215,-260,1591.454,6142.098,-2296.431,14929.961
4.169617,321,1562,-1419,18,-267,-284,1660.930,6139.386,-2325.371,14919.026
4.189148,325,1609,-1398,35,-338,-315,1737.385,6135.897,-2362.494,14905.915
4.209137,346,1591,-1388,33,-395,-324,1816.761,6129.121,-2409.213,14891.755,133,-310,-470,98507,26150
4.229126,331,1587,-1353,55,-450,-309,1896.743,6116.755,-2462.292,14878.179,125,-319,-475
4.249115,356,1595,-1389,81,-475,-294,1976.436,6101.558,-2520.099,14864.361
4.269471,429,1578,-1359,85,-510,-282,2056.955,6084.612,-2587.212,14848.845
4.289093,463,1573,-1318,81,-568,-266,2139.593,6065.372,-2662.499,14831.721
4.309082,501,1572,-1368,94,-605,-270,2227.030,6042.307,-2739.618,14814.209
4.329041,509,1614,-1321,120,-623,-292,2319.528,6015.283,-2816.772,14796.533,133,-310,-472
4.349030,484,1588,-1316,142,-629,-315,2415.750,5987.375,-2891.449,14778.039
4.369385,537,1594,-1329,148,-626,-340,2517.886,5959.288,-2963.816,14757.993
4.389008,535,1581,-1365,151,-636,-382,2629.109,5930.015,-3032.649,14736.390
4.408997,567,1581,-1348,173,-629,-446,2749.726,5899.508,-3096.572,14713.310
4.428986,550,1559,-1387,183,-631,-502,2876.837,5870.658,-3154.899,14688.132,139,-316,-482
4.448944,559,1539,-1431,180,-600,-543,3004.914,5844.167,-3209.242,14661.255
4.469330,619,1524,-1388,162,-588,-542,3127.544,5820.821,-3261.536,14633.329
4.488922,598,1468,-1336,135,-561,-519,3241.827,5801.382,-3308.222,14605.671
4.508912,540,1398,-1343,114,-496,-495,3348.803,5786.092,-3347.603,14578.602
4.528901,482,1378,-1421,91,-451,-479,3451.339,5774.945,-3387.813,14549.791,157,-310,-479
4.548890,490,1384,-1396,53,-467,-458,3553.027,5768.216,-3433.601,14517.214
4.569245,544,1385,-1369,14,-493,-461,3655.153,5764.485,-3481.181,14481.968
4.588837,555,1440,-1356,7,-486,-469,3758.786,5761.522,-3524.338,14446.137
4.608826,570,1464,-1373,13,-459,-493,3863.440,5760.392,-3559.783,14410.242
4.628846,587,1484,-1410,11,-418,-515,3966.912,5762.554,-3586.942,14374.486,164,-322,-486
4.648804,566,1482,-1366,4,-364,-525,4066.501,5766.956,-3606.283,14340.012
4.669190,561,1500,-1400,0,-310,-514,4155.450,5775.655,-3620.752,14307.328
4.688782,527,1515,-1379,-30,-249,-460,4228.691,5788.806,-3628.434,14278.578
4.708771,504,1509,-1368,-61,-181,-385,4285.559,5807.494,-3635.317,14252.259,164,-322,-486,98508,26160
4.728730,476,1459,-1432,-103,-140,-313,4331.368,5831.744,-3640.050,14227.279,168,-331,-494
4.748749,430,1443,-1416,-137,-102,-276,4370.497,5858.674,-3645.714,14202.778
4.769104,430,1455,-1392,-155,-98,-250,4406.339,5888.029,-3654.249,14177.348
4.788697,420,1508,-1434,-179,-106,-236,4440.347,5919.711,-3664.965,14150.753
4.808686,438,1487,-1465,-199,-109,-230,4472.486,5955.161,-3674.526,14123.251
4.828675,407,1481,-1493,-216,-91,-223,4502.743,5989.041,-3683.307,14096.999,173,-309,-485
4.848633,401,1505,-1527,-199,-87,-214,4531.735,6020.652,-3693.504,14071.553
4.869019,398,1482,-1452,-195,-106,-196,4559.823,6046.072,-3707.646,14047.840
4.888611,406,1441,-1373,-151,-128,-171,4588.067,6060.637,-3724.211,14027.972
4.908600,440,1444,-1424,-92,-153,-146,4616.310,6067.845,-3740.255,14011.312
4.928589,446,1421,-1397,-52,-151,-142,4646.301,6068.685,-3753.790,13997.408,162,-315,-488
4.948578,459,1416,-1382,-7,-143,-151,4679.348,6062.658,-3764.560,13986.114
4.968933,483,1403,-1374,40,-144,-157,4714.302,6048.810,-3773.672,13977.914
4.988556,513,1419,-1328,94,-147,-149,4750.524,6026.178,-3780.399,13973.608
5.008515,542,1394,-1324,149,-149,-143,4787.043,5994.222,-3782.899,13974.213
5.028504,507,1425,-1291,220,-137,-132,4822.418,5953.182,-3783.241,13979.501,160,-308,-470
5.048493,477,1679,-1258,267,-125,-111,4856.031,5913.133,-3780.540,13985.591
5.068879,348,1826,-1647,235,-102,-116,4883.104,5894.271,-3768.329,13987.422
5.088471,276,1952,-1734,120,32,-141,4899.231,5881.460,-3743.226,13993.915
5.108460,296,1963,-1462,157,61,-46,4891.496,5846.603,-3729.201,14014.956
5.128418,376,2168,-1254,254,58,189,4846.359,5806.037,-3727.214,14047.991,164,-298,-479
5.148438,490,2113,-1787,171,80,400,4770.629,5786.409,-3723.597,14082.927
5.168793,464,1925,-1753,61,264,469,4682.145,5769.764,-3712.330,14122.371
5.188385,507,1704,-1573,55,198,523,4595.073,5745.450,-3723.407,14157.923
5.208374,400,1538,-1669,71,108,539,4513.805,5718.641,-3733.458,14192.231,164,-298,-479,98511,26160
5.228363,304,1306,-1516,69,96,491,4450.412,5691.396,-3750.632,14218.651,169,-310,-486
5.248352,259,1134,-1360,74,-15,381,4416.737,5658.211,-3774.995,14235.938
5.268708,230,1108,-1180,124,-140,231,4415.010,5620.205,-3806.990,14243.007
5.288300,191,1158,-1046,145,-245,80,4437.117,5591.763,-3843.072,14237.641
5.308289,135,1273,-1100,66,-274,-68,4479.604,5590.215,-3865.243,14218.930
5.328278,103,1442,-1267,-48,-211,-256,4541.745,5609.651,-3874.895,14188.904,173,-323,-489
5.348267,173,1567,-1330,-102,-181,-405,4617.715,5637.142,-3879.944,14152.060
5.368653,251,1720,-1422,-118,-195,-474,4696.664,5666.442,-3884.270,14113.138
5.388306,356,1817,-1403,-121,-182,-468,4763.967,5696.377,-3889.000,14077.181
5.408234,360,1808,-1387,-138,-146,-378,4807.928,5726.834,-3892.191,14048.967
5.428223,340,1713,-1296,-152,-62,-238,4823.731,5755.714,-3893.829,14031.283,190,-326,-494
5.448182,328,1649,-1210,-155,1,-82,4815.519,5785.061,-3895.844,14021.472
5.468567,289,1581,-1230,-185,68,27,4788.514,5820.268,-3892.220,14017.156
5.488190,223,1531,-1240,-215,153,97,4748.904,5860.354,-3881.802,14016.819
5.508149,175,1457,-1259,-240,211,134,4704.031,5904.703,-3868.477,14017.021
5.528138,92,1538,-1275,-265,231,144,4658.176,5950.871,-3850.636,14017.723,175,-321,-489
5.548127,126,1552,-1321,-257,260,121,4617.473,6001.317,-3832.773,14014.579
5.568482,142,1597,-1344,-288,232,88,4579.426,6052.517,-3814.654,14009.987
5.588074,119,1608,-1348,-281,237,77,4541.170,6101.716,-3794.984,14006.440
5.608063,103,1624,-1288,-261,247,81,4501.407,6147.691,-3774.114,14004.811
5.628052,122,1669,-1326,-240,255,106,4456.415,6188.208,-3751.602,14007.404,179,-315,-481
5.648041,152,1647,-1347,-203,276,148,4404.234,6222.793,-3726.779,14015.210
5.668396,162,1612,-1336,-170,299,196,4343.096,6251.098,-3697.488,14029.444
5.688019,130,1608,-1353,-132,345,247,4273.326,6275.529,-3664.680,14048.558
5.707978,130,1573,-1364,-113,381,292,4196.159,6295.432,-3630.782,14071.696,179,-315,-481,98510,26160
5.727967,121,1553,-1399,-87,387,338,4114.640,6309.055,-3596.614,14098.417,170,-304,-475
5.748017,154,1529,-1399,-52,389,365,4031.928,6316.195,-3562.942,14127.636
5.768311,173,1521,-1428,-23,385,374,3949.536,6319.174,-3526.781,14158.618
5.787934,185,1541,-1414,2,395,372,3866.943,6321.749,-3488.462,14189.725
5.807892,200,1610,-1427,-4,419,367,3782.360,6328.238,-3445.617,14220.067
5.827881,225,1712,-1417,-26,446,362,3694.052,6338.032,-3398.447,14250.239,168,-307,-473
5.847870,203,1713,-1390,-27,494,376,3596.974,6345.218,-3341.784,14285.233
5.868256,144,1643,-1369,22,576,417,3491.709,6338.240,-3272.462,14330.426
5.887848,103,1716,-1360,146,646,455,3381.022,6314.298,-3188.181,14386.426
5.907868,204,1774,-1559,257,715,479,3268.662,6281.649,-3093.883,14447.147
5.927826,245,1836,-1886,281,768,464,3158.090,6255.390,-2992.956,14504.283,164,-303,-474
5.947785,270,1800,-2074,229,765,421,3053.580,6231.577,-2901.925,14555.321
5.968171,388,1956,-1851,213,664,420,2962.944,6195.500,-2836.561,14602.263
5.987763,527,1800,-1927,271,461,386,2890.569,6159.249,-2784.254,14642.118
6.007752,517,1565,-1589,230,402,301,2826.277,6126.263,-2739.767,14676.858
6.027741,383,1478,-1213,235,346,297,2769.651,6087.342,-2701.502,14710.901,166,-309,-466
6.047730,352,1340,-1015,243,296,256,2721.027,6062.213,-2664.857,14737.013
6.068085,285,1190,-947,149,303,205,2668.111,6054.036,-2623.549,14757.447
6.087677,323,1314,-849,36,345,216,2616.393,6066.589,-2585.983,14768.179
6.107697,397,1447,-1043,-103,316,152,2576.250,6104.121,-2546.275,14766.671
6.127655,373,1646,-1216,-229,331,45,2547.779,6155.329,-2504.504,14757.494,153,-310,-486
6.147644,405,1890,-1360,-267,302,-21,2530.570,6203.021,-2468.746,14746.507
6.168030,431,1886,-1382,-219,223,-41,2517.650,6235.418,-2446.529,14738.756
6.187622,476,1761,-1431,-130,140,-3,2502.374,6251.537,-2435.124,14736.418
6.207581,420,1607,-1431,-53,90,58,2485.006,6254.125,-2432.882,14738.629,153,-310,-486,98508,26160
6.227600,375,1463,-1365,-4,27,91,2472.848,6249.542,-2441.626,14741.172,145,-315,-479
6.247589,346,1367,-1309,16,-38,72,2474.143,6243.163,-2455.215,14741.400
6.267945,322,1339,-1298,23,-105,-3,2492.297,6237.902,-2472.160,14737.737
6.287537,398,1384,-1254,13,-151,-89,2523.259,6235.734,-2491.872,14730.064
6.307526,486,1445,-1223,-4,-176,-141,2555.392,6238.685,-2508.906,14720.381
6.327515,473,1462,-1240,-37,-140,-138,2576.299,6249.047,-2520.136,14710.419,129,-301,-479
6.347504,483,1492,-1239,-75,-72,-84,2580.654,6264.040,-2527.767,14701.967
6.367859,477,1460,-1310,-107,-18,-7,2570.109,6281.124,-2531.466,14695.888
6.387452,443,1432,-1337,-115,30,57,2550.827,6298.621,-2531.620,14691.732
6.407471,416,1382,-1380,-112,71,80,2530.380,6311.792,-2529.732,14689.940
6.427430,388,1374,-1431,-80,68,79,2513.370,6320.437,-2525.589,14689.856,139,-302,-480
6.447419,393,1378,-1414,-50,64,57,2502.405,6325.524,-2521.009,14690.325
6.467774,406,1369,-1443,-30,46,28,2497.859,6328.048,-2516.040,14690.864
6.487397,395,1369,-1467,-14,36,-7,2498.559,6328.607,-2508.175,14691.849
6.507386,369,1395,-1463,6,42,-38,2504.110,6327.470,-2498.734,14693.002
6.527375,396,1418,-1466,18,32,-60,2513.531,6326.172,-2489.767,14693.475,141,-308,-479
6.547333,367,1450,-1516,18,22,-77,2526.682,6323.895,-2479.753,14693.893
6.567719,384,1475,-1555,33,21,-102,2545.547,6318.095,-2468.497,14695.027
6.587311,376,1467,-1625,61,-4,-123,2569.340,6304.320,-2459.378,14698.331
6.607361,368,1470,-1582,125,-30,-132,2600.094,6277.937,-2455.742,14704.822
6.627289,396,1380,-1675,187,-90,-152,2641.052,6243.340,-2456.681,14712.094,141,-301,-477
6.647278,472,1422,-1700,238,-135,-192,2691.735,6199.627,-2464.355,14720.108
6.667633,563,1477,-1675,284,-217,-205,2753.018,6149.659,-2483.959,14726.438
6.687226,562,1648,-1560,300,-286,-233,2811.909,6100.435,-2508.523,14731.619
6.707215,617,1846,-2070,259,-290,-192,2863.058,6075.018,-2528.050,14728.932,141,-301,-477,98509,26160
6.727204,476,1700,-2012,97,-147,-228,2898.231,6051.202,-2524.324,14732.496,130,-302,-466
6.747284,716,1813,-1203,196,-111,-103,2911.374,6009.076,-2550.450,14742.644
6.767609,605,2172,-1707,214,-163,84,2894.561,6000.354,-2558.401,14748.128
6.787171,208,2014,-2033,-75,118,96,2859.003,6022.703,-2530.719,14750.730
6.807190,409,1645,-1348,-86,240,153,2808.264,6014.556,-2528.808,14764.123
6.827149,398,1303,-1066,105,72,349,2738.896,5987.456,-2532.930,14787.445,132,-311,-473
6.847138,202,1110,-894,111,154,433,2664.801,5974.946,-2538.575,14805.064
6.867493,25,1222,-888,-11,103,393,2615.856,5986.199,-2550.399,14807.215
6.887116,-14,1423,-1081,-156,15,181,2609.344,6017.121,-2553.914,14795.220
6.907074,95,1747,-1276,-205,4,-80,2629.464,6063.640,-2549.410,14773.426
6.927063,235,1796,-1425,-275,-10,-198,2650.859,6114.926,-2542.045,14749.714,126,-306,-486
6.947052,385,1676,-1473,-255,56,-168,2650.060,6155.452,-2530.560,14734.968
6.967438,389,1547,-1442,-208,94,1,2616.912,6185.442,-2518.475,14730.404
6.987030,348,1503,-1459,-172,193,174,2557.316,6213.099,-2502.914,14731.883
7.007019,305,1311,-1347,-191,255,285,2478.823,6244.030,-2481.634,14735.822
7.027008,301,1344,-1184,-213,336,356,2388.134,6284.007,-2459.593,14737.500,131,-313,-488
7.046997,214,1279,-1288,-310,355,396,2289.235,6340.460,-2428.811,14734.119
7.067353,157,1212,-1277,-365,453,387,2191.139,6395.414,-2393.096,14731.127
7.086975,102,1340,-1314,-332,421,371,2101.682,6449.188,-2360.164,14726.030
7.106934,14,1318,-1475,-353,386,317,2025.061,6499.086,-2325.413,14720.356
7.126923,41,1386,-1367,-286,362,254,1964.452,6536.815,-2299.877,14715.875,133,-301,-483
7.146912,115,1473,-1424,-222,239,214,1914.266,6563.760,-2280.565,14713.501
7.167298,155,1533,-1383,-150,212,192,1865.502,6581.459,-2264.120,14714.397
7.186859,164,1600,-1351,-109,199,214,1813.281,6595.275,-2248.376,14717.153
7.206879,141,1632,-1360,-86,219,240,1755.178,6600.096,-2228.485,14725.059,133,-301,-483,98511,26160
7.226838,165,1694,-1346,-7,241,274,1694.642,6591.413,-2212.588,14738.431,126,-291,-458
7.246827,216,1643,-1475,64,214,305,1632.402,6575.812,-2192.890,14755.359
7.267182,125,1523,-1612,93,274,293,1574.854,6551.335,-2160.765,14777.225
7.286805,108,1597,-1510,189,298,236,1526.985,6505.909,-2124.317,14807.572
7.306794,240,2085,-1514,337,282,222,1482.367,6442.604,-2090.815,14844.506
7.326783,628,1996,-1999,413,246,230,1438.178,6394.527,-2057.912,14874.209,127,-297,-462
7.346772,508,1752,-2016,237,301,188,1387.951,6350.546,-2009.036,14904.475
7.367127,415,1994,-1680,335,378,201,1341.862,6284.872,-1970.525,14941.628
7.386719,686,1953,-1572,435,255,211,1305.943,6228.481,-1945.100,14971.725
7.406708,692,1647,-1294,279,220,158,1258.047,6199.949,-1900.349,14993.400
7.426697,417,1672,-1030,150,452,202,1178.973,6186.906,-1829.976,15013.955,123,-300,-459
7.446686,454,1779,-897,52,579,321,1079.205,6197.808,-1766.877,15024.515
7.467041,366,1682,-1080,-110,569,406,968.186,6228.936,-1695.119,15027.474
7.486664,215,1633,-1347,-195,678,397,863.013,6259.765,-1610.314,15030.398
7.506653,114,1545,-1485,-154,670,318,782.315,6275.618,-1529.025,15036.692
7.526612,53,1446,-1501,-39,556,194,735.440,6270.405,-1460.555,15048.035,127,-309,-466
7.546601,124,1350,-1436,97,404,58,719.081,6247.202,-1409.970,15063.293
7.566956,141,1270,-1327,184,241,-37,724.463,6214.463,-1377.049,15079.614
7.586579,167,1208,-1324,233,114,-104,746.339,6178.060,-1354.938,15095.500
7.606537,231,1174,-1320,236,44,-163,781.587,6146.102,-1340.787,15108.020
7.626526,298,1231,-1258,195,-33,-212,824.704,6121.873,-1336.417,15115.951,109,-298,-465
7.646515,389,1320,-1255,137,-99,-229,869.274,6113.564,-1340.907,15116.418
7.666901,442,1406,-1275,22,-117,-215,900.235,6119.978,-1346.864,15111.480
7.686493,457,1419,-1217,-59,-75,-120,908.436,6135.128,-1353.774,15104.227
7.706482,492,1424,-1245,-104,-19,-5,895.931,6154.528,-1357.186,15096.773,109,-298,-465,98513,26160
7.726502,518,1443,-1324,-128,37,88,866.592,6175.047,-1357.602,15090.068,105,-308,-470
7.746491,474,1444,-1395,-131,96,163,821.658,6192.589,-1353.122,15085.795
7.766816,441,1425,-1487,-104,153,233,766.153,6202.712,-1343.008,15085.461
7.786438,387,1437,-1574,-67,192,267,707.098,6206.608,-1329.618,15087.928
7.806397,347,1446,-1620,-27,208,273,651.607,6203.564,-1314.667,15092.988
7.826477,361,1442,-1667,20,194,246,607.116,6192.825,-1300.656,15100.465,109,-313,-465
7.846375,334,1446,-1693,66,166,180,576.732,6176.285,-1286.480,15109.642
7.866730,364,1513,-1690,99,125,111,557.996,6155.597,-1273.449,15119.888
7.886353,330,1628,-1722,132,99,59,552.242,6128.337,-1260.624,15132.243
7.906342,230,1917,-1973,187,66,-22,569.034,6097.600,-1242.135,15145.561
7.926300,134,1879,-2290,214,76,-171,603.333,6053.252,-1209.516,15164.651,106,-292,-464
7.946289,217,1729,-1917,371,84,-230,636.401,5971.351,-1194.376,15196.936
7.966675,340,1567,-1653,559,-66,-121,649.774,5879.867,-1206.792,15231.022
7.986267,414,1501,-1589,537,-112,72,639.025,5805.108,-1235.047,15257.866
8.006256,302,1350,-1552,372,-131,178,617.761,5758.963,-1265.552,15273.720
8.026215,191,1314,-1439,202,-125,202,599.237,5739.304,-1300.251,15278.942,102,-298,-472
8.046234,159,1376,-1409,34,-167,147,597.392,5748.379,-1335.738,15272.541
8.066590,32,1368,-1552,-122,-200,31,611.833,5778.496,-1361.698,15258.305
8.086182,51,1544,-1452,-211,-156,-83,642.998,5816.297,-1384.678,15240.582
8.106171,252,1633,-1473,-241,-222,-162,680.854,5861.076,-1412.791,15219.188
8.126160,383,1542,-1414,-274,-235,-153,704.196,5906.491,-1443.575,15197.664,102,-313,-474
8.146149,396,1418,-1314,-267,-194,-42,700.845,5948.695,-1475.409,15178.288
8.166504,307,1302,-1316,-270,-124,109,668.957,5989.342,-1502.647,15161.061
8.186127,235,1255,-1182,-278,-48,238,620.806,6031.601,-1526.865,15143.926
8.206116,100,1266,-1123,-301,-6,287,570.511,6081.721,-1539.913,15124.526,102,-313,-474,98514,26160
8.226075,84,1311,-1255,-347,73,234,527.453,6141.051,-1535.642,15102.534,121,-303,-483
8.246064,84,1392,-1313,-381,95,165,495.401,6197.818,-1528.720,15081.117
8.266419,103,1373,-1357,-339,107,98,473.274,6244.500,-1518.726,15063.570
8.286042,67,1353,-1387,-262,75,58,461.667,6275.905,-1513.756,15051.374
8.306031,21,1337,-1417,-159,27,24,460.292,6290.964,-1515.249,15044.978
8.325989,72,1367,-1375,-64,-45,-3,470.268,6292.925,-1528.882,15042.470,111,-309,-471
8.345978,161,1439,-1432,9,-134,-25,487.933,6287.203,-1548.605,15042.282
8.366364,168,1396,-1469,47,-150,-50,507.859,6276.173,-1565.142,15044.517
8.385956,190,1495,-1492,79,-129,-65,529.605,6260.225,-1579.540,15048.907
8.405945,250,1579,-1496,109,-133,-68,548.932,6240.773,-1593.302,15054.841
8.425934,309,1698,-1545,126,-107,-46,556.898,6221.112,-1600.325,15061.940,111,-300,-471
8.445893,310,1744,-1603,124,-21,8,545.967,6199.577,-1594.873,15071.794
8.466309,281,1772,-1465,147,101,96,511.116,6166.686,-1578.863,15088.186
8.485901,358,2008,-1633,232,197,218,455.737,6120.456,-1549.751,15111.784
8.505860,421,1895,-1929,291,346,272,387.981,6071.758,-1493.593,15138.951
8.525849,325,1594,-2034,299,494,257,324.901,6018.419,-1428.974,15167.944,124,-294,-472
8.545838,267,1536,-1819,328,419,207,287.971,5962.640,-1391.408,15194.190
8.566193,391,1727,-1710,333,216,102,283.973,5911.307,-1368.069,15216.426
8.585816,426,1552,-1641,296,114,-53,296.164,5872.738,-1337.500,15233.836
8.605805,337,1476,-1372,240,169,-127,301.517,5839.663,-1298.853,15249.782
8.625763,364,1561,-1074,202,216,-63,283.308,5819.882,-1261.961,15260.786,113,-307,-473
8.645752,335,1644,-1039,74,270,85,236.029,5832.080,-1216.568,15260.620
8.666138,280,1647,-1250,-132,388,182,177.031,5866.969,-1159.833,15252.461
8.685730,153,1575,-1483,-238,433,169,129.794,5906.210,-1095.853,15242.519
8.705719,54,1501,-1612,-214,428,62,107.937,5933.494,-1040.169,15235.993,113,-307,-473,98511,26160
8.725678,114,1433,-1593,-127,256,-43,115.839,5946.811,-1007.473,15232.940,114,-301,-477
8.745758,236,1383,-1537,-48,95,-147,142.626,5952.624,-989.173,15231.641
8.766053,250,1276,-1407,-19,4,-192,174.981,5956.654,-979.390,15230.361
8.785675,333,1250,-1335,-16,-32,-197,208.954,5962.987,-977.888,15227.550
8.805634,331,1256,-1348,-36,-66,-187,242.178,5973.384,-977.964,15222.978
8.825623,389,1262,-1301,-71,-84,-178,271.714,5990.361,-984.268,15215.400,117,-313,-472
8.845612,448,1288,-1255,-112,-85,-138,288.288,6013.041,-989.950,15205.777
8.865967,446,1336,-1213,-143,-40,-61,285.780,6039.735,-989.094,15195.297
8.885590,439,1345,-1228,-168,54,24,263.325,6068.422,-978.623,15184.948
8.905579,398,1324,-1294,-180,139,111,221.628,6097.781,-960.782,15174.989
8.925537,423,1303,-1280,-182,216,196,165.727,6124.714,-941.557,15166.058,100,-313,-477
8.945526,410,1277,-1400,-176,231,259,103.260,6149.024,-920.435,15158.069
8.965882,361,1302,-1475,-158,258,271,41.609,6167.391,-896.735,15152.322
8.985505,322,1299,-1574,-118,259,254,-14.170,6178.972,-872.342,15149.078
9.005494,303,1356,-1649,-76,241,219,-59.522,6184.156,-850.039,15148.120
9.025483,324,1416,-1694,-36,199,165,-90.380,6184.344,-831.072,15148.943,82,-302,-473
9.045502,341,1487,-1815,-6,149,88,-105.380,6181.543,-815.381,15150.842
9.065827,397,1568,-1906,11,104,12,-108.140,6173.343,-803.805,15154.784
9.085419,407,1517,-1955,68,52,-27,-101.991,6148.819,-801.362,15164.922
9.105408,412,1657,-1822,198,-27,-43,-83.619,6101.048,-818.729,15183.390
9.125397,322,1831,-2090,325,-182,-65,-50.534,6051.135,-842.063,15202.223,90,-286,-454
9.145386,328,1944,-2086,294,-168,-149,-12.120,6004.572,-865.528,15219.437
9.165741,495,1918,-1668,321,-213,-114,1.330,5942.320,-905.516,15241.532
9.185334,515,1897,-1576,404,-227,125,-36.680,5888.196,-950.007,15259.774
9.205323,376,1650,-1541,259,-59,404,-122.207,5863.729,-979.014,15266.916,90,-286,-454,98511,26150
9.225342,315,1339,-1275,53,72,571,-226.299,5864.668,-1001.347,15263.918,92,-295,-457
9.245301,169,1351,-1241,-99,105,598,-327.304,5894.964,-1014.425,15249.546
9.265656,54,1470,-1333,-285,152,509,-405.022,5950.636,-1011.717,15226.219
9.285279,107,1583,-1369,-407,152,322,-452.823,6019.206,-1000.060,15198.665
9.305237,279,1623,-1347,-435,123,165,-488.424,6086.931,-989.004,15171.289
9.325226,374,1676,-1286,-412,115,157,-539.354,6152.556,-975.532,15143.940,96,-302,-478
9.345215,373,1529,-1199,-419,195,272,-621.828,6219.082,-958.894,15114.639
9.365570,296,1414,-1275,-435,285,444,-733.209,6282.597,-937.421,15084.696
9.385193,188,1297,-1210,-429,371,552,-857.345,6340.790,-911.189,15055.381
9.405182,146,1231,-1143,-409,407,588,-980.316,6399.053,-881.101,15024.986
9.425171,99,1295,-1161,-433,391,563,-1095.924,6461.621,-844.372,14992.294,100,-303,-465
9.445160,112,1332,-1307,-456,437,488,-1201.620,6524.582,-797.075,14959.480
9.465516,111,1280,-1356,-441,454,422,-1296.581,6577.146,-748.043,14931.038
9.485108,132,1296,-1366,-353,420,364,-1380.555,6614.839,-703.768,14908.994
9.505097,94,1291,-1398,-264,372,329,-1455.584,6641.538,-666.099,14891.709
9.525086,68,1253,-1461,-198,328,298,-1519.887,6659.699,-635.083,14878.523,107,-284,-460
9.545075,123,1301,-1456,-145,259,255,-1571.524,6673.088,-616.445,14867.940
9.565430,171,1340,-1449,-117,169,220,-1614.773,6685.010,-605.361,14858.403
9.585022,214,1455,-1439,-104,132,195,-1654.639,6695.584,-595.546,14849.649
9.605011,219,1480,-1473,-89,133,186,-1695.371,6702.763,-583.618,14842.288
9.625000,226,1590,-1530,-63,157,192,-1738.427,6703.193,-573.085,14837.523,103,-271,-439
9.644989,256,1659,-1600,-15,137,210,-1779.412,6697.252,-567.806,14835.550
9.665375,316,1755,-1760,20,107,196,-1816.026,6687.826,-563.901,14835.514
9.684967,339,1784,-1654,57,135,179,-1857.891,6666.004,-556.485,14840.431
9.704926,372,2019,-1407,145,153,230,-1918.586,6624.863,-549.729,14851.379,103,-271,-439,98513,26160
9.724945,558,2175,-1630,273,241,342,-2004.530,6573.686,-527.071,14863.584,105,-258,-437
9.744904,612,1936,-1969,258,456,430,-2120.277,6524.377,-475.672,14870.982
9.765259,324,1600,-1946,209,624,510,-2239.815,6471.353,-422.721,14878.224
9.784851,365,1823,-1810,239,539,470,-2324.690,6414.137,-389.687,14890.878
9.804840,510,1721,-1556,288,320,303,-2379.170,6369.847,-368.915,14901.810
9.824829,539,1595,-1208,201,264,202,-2438.984,6339.481,-341.408,14905.744,113,-266,-436
9.844818,436,1721,-952,98,360,286,-2524.151,6330.205,-297.840,14896.439
9.865174,470,1799,-1012,-89,457,392,-2629.034,6357.272,-241.384,14867.765
9.884766,359,1753,-1308,-315,546,459,-2740.515,6398.647,-166.458,14830.867
9.904755,210,1661,-1483,-356,603,426,-2835.262,6426.888,-96.174,14801.438
9.924744,144,1558,-1530,-214,486,318,-2896.966,6431.663,-47.298,14787.647,102,-267,-447
9.944733,205,1449,-1423,-39,314,174,-2928.171,6419.042,-20.575,14787.046
9.965088,223,1327,-1392,70,161,72,-2940.013,6399.420,-7.280,14793.212
9.984681,283,1278,-1363,110,82,3,-2937.244,6381.374,-3.466,14801.557
10.004670,352,1196,-1281,107,17,-54,-2924.886,6363.682,-5.386,14811.617
10.024659,363,1170,-1249,110,-50,-80,-2906.811,6348.654,-17.372,14821.612,94,-264,-439
10.044648,436,1176,-1171,104,-104,-81,-2888.226,6338.361,-39.068,14829.607
10.065003,522,1178,-1103,81,-154,-43,-2878.666,6336.112,-64.890,14832.336
10.084626,573,1208,-1035,16,-133,26,-2887.829,6345.695,-84.638,14826.357
10.104615,536,1248,-1125,-78,-48,127,-2920.901,6365.151,-91.603,14811.490
10.124604,505,1298,-1239,-142,65,226,-2971.995,6389.850,-89.580,14790.689,98,-258,-433
10.144593,485,1262,-1376,-191,127,292,-3031.537,6416.630,-79.099,14767.052
10.164948,432,1305,-1560,-208,175,303,-3088.929,6438.698,-62.819,14745.615
10.184571,420,1313,-1680,-169,204,246,-3133.600,6451.867,-45.678,14730.489
10.204529,446,1311,-1695,-96,157,181,-3165.196,6451.756,-37.969,14723.803,98,-258,-433,98510,26160
10.224518,464,1358,-1667,-3,78,128,-3184.245,6442.644,-38.938,14723.683,100,-253,-440
10.244507,479,1395,-1700,53,40,70,-3187.824,6431.769,-38.431,14727.664
10.294007,483,1468,-1805,55,16,-31,-3174.176,6420.687,-32.896,14735.458
10.294373,488,1549,-1868,62,4,-137,-3145.176,6404.768,-28.163,14748.609
10.304444,438,1509,-1920,128,-31,-203,-3110.137,6368.263,-28.473,14771.828
10.324433,468,1595,-1782,292,-79,-243,-3056.584,6309.434,-47.811,14808.156,106,-249,-439
10.344422,441,1781,-1897,451,-219,-307,-2982.455,6242.734,-72.028,14851.379
10.364777,350,1844,-2100,455,-189,-445,-2891.198,6175.556,-80.295,14897.398
10.384400,560,1845,-1694,479,-195,-507,-2804.440,6100.776,-116.641,14944.480
10.404389,624,1859,-1521,536,-343,-347,-2753.883,6036.745,-171.205,14979.318
10.424347,421,1624,-1567,419,-286,-92,-2746.607,5990.568,-212.492,14998.651,102,-248,-433
10.444336,356,1461,-1243,289,-142,94,-2761.741,5963.852,-250.155,15005.936
10.464722,282,1507,-1400,123,-130,163,-2775.569,5972.667,-265.172,14999.620
10.484314,238,1547,-1490,-126,-21,67,-2776.078,6007.498,-258.452,14985.726
10.504303,290,1557,-1448,-244,-3,-33,-2765.373,6048.000,-247.678,14971.590
10.524262,382,1526,-1348,-243,-15,-75,-2757.989,6089.127,-240.431,14956.392,98,-258,-444
10.544251,428,1403,-1323,-256,-18,-14,-2768.704,6132.793,-233.599,14936.666
10.564637,361,1233,-1245,-275,34,101,-2804.015,6174.867,-225.108,14912.856
10.584229,316,1081,-1146,-287,105,226,-2858.137,6219.598,-213.775,14884.132
10.604218,235,1093,-1162,-330,135,303,-2917.149,6272.460,-196.636,14850.699
10.624207,169,1137,-1156,-391,147,296,-2969.705,6332.881,-173.645,14814.883,100,-262,-456
10.644196,96,1215,-1203,-437,176,228,-3011.593,6397.909,-140.373,14778.796
10.664551,42,1312,-1259,-459,195,153,-3042.470,6461.601,-99.631,14745.053
10.684174,79,1320,-1365,-440,203,75,-3059.651,6519.117,-59.588,14716.369
10.704132,138,1349,-1379,-373,162,12,-3066.987,6564.890,-30.589,14694.567,100,-262,-456,98508,26170
10.724121,100,1352,-1410,-292,68,-4,-3068.360,6599.460,-13.800,14678.813,105,-262,-444
10.744141,136,1368,-1357,-206,31,-13,-3065.103,6627.198,-9.985,14666.994
10.764527,216,1374,-1415,-169,-60,-6,-3058.137,6653.711,-15.638,14656.436
10.784089,275,1484,-1469,-152,-83,-13,-3049.632,6678.704,-22.920,14646.828
10.804108,232,1493,-1556,-145,-86,-20,-3040.834,6699.292,-26.481,14639.247
10.824097,352,1562,-1451,-106,-60,-27,-3032.308,6712.391,-38.862,14634.987,113,-256,-439
10.844056,393,1690,-1571,-59,-116,1,-3029.596,6722.798,-47.357,14630.746
10.864441,363,1787,-1717,-57,-17,11,-3036.136,6726.748,-43.015,14627.588
10.884034,254,1824,-1621,-5,68,31,-3051.263,6710.037,-34.190,14632.138
10.904023,380,2183,-1594,149,113,73,-3074.275,6667.037,-28.058,14646.982
10.924012,519,2105,-1864,299,155,92,-3105.499,6616.821,-6.833,14663.183,106,-254,-432
10.944001,302,1836,-2061,264,284,96,-3145.474,6566.496,26.797,14677.256
10.964356,349,1730,-1675,252,308,114,-3169.035,6513.002,34.320,14695.995
10.983948,558,1787,-1374,340,44,58,-3167.289,6463.226,21.260,14718.355
11.003937,658,1708,-1176,285,3,-45,-3164.611,6432.173,32.834,14732.506
11.023926,494,1862,-1059,136,155,-48,-3185.308,6418.490,75.272,14733.858,113,-240,-429
11.043946,427,2000,-1144,-16,362,31,-3226.969,6427.656,139.267,14720.324
11.064301,333,1878,-1347,-174,450,109,-3278.751,6445.483,214.442,14700.170
11.083893,210,1725,-1498,-189,492,120,-3327.217,6449.345,283.092,14686.418
11.103852,108,1521,-1521,-62,417,101,-3357.886,6433.573,331.592,14685.340
11.123871,148,1387,-1491,78,279,11,-3360.544,6402.213,358.871,14697.791,100,-253,-430
11.143830,189,1245,-1309,195,110,-105,-3338.485,6360.639,368.561,14720.611
11.164215,223,1176,-1187,268,16,-201,-3300.848,6315.555,373.392,14748.362
11.183808,272,1133,-1195,278,-19,-265,-3254.094,6274.361,378.619,14776.175
11.203797,307,1066,-1201,250,-35,-305,-3202.472,6238.978,383.623,14802.283,100,-253,-430,98505,26170
11.223786,361,1088,-1166,200,-64,-322,-3151.756,6212.526,381.137,14824.342,102,-241,-428
11.243775,435,1178,-1179,157,-104,-274,-3109.781,6198.443,377.272,14839.193
11.264130,453,1213,-1113,66,-75,-205,-3087.034,6198.953,380.174,14843.655
11.283722,444,1263,-1217,-36,5,-100,-3085.022,6212.221,395.431,14838.127
11.303711,455,1310,-1213,-119,98,-14,-3097.898,6231.528,415.417,14826.798
11.323700,441,1343,-1299,-150,130,47,-3117.784,6251.534,440.592,14813.476,89,-245,-429
11.343689,413,1354,-1424,-157,181,59,-3141.666,6270.305,471.336,14799.543
11.364045,387,1375,-1531,-155,211,71,-3169.311,6285.928,503.328,14785.962
11.383637,388,1377,-1577,-137,217,91,-3199.273,6297.407,531.276,14773.642
11.403626,326,1407,-1667,-106,191,105,-3225.508,6305.250,553.656,14763.767
11.423615,343,1492,-1810,-82,154,77,-3240.190,6312.779,571.625,14756.648,90,-262,-435
11.443604,385,1677,-1979,-85,101,19,-3242.489,6321.228,584.195,14752.033
11.463959,369,1635,-2066,-66,41,-32,-3236.869,6315.298,587.601,14755.671
11.483643,338,1693,-1950,89,-16,-57,-3217.711,6283.635,567.105,14774.170
11.503571,356,1872,-2186,263,-181,-118,-3169.958,6253.928,535.088,14798.272
11.523560,231,1943,-2294,195,-228,-273,-3112.385,6222.846,513.453,14824.340,87,-254,-432
11.543518,476,1903,-1674,249,-247,-259,-3072.698,6184.752,458.940,14850.326
11.563874,440,1954,-1618,327,-321,-38,-3074.893,6150.035,409.991,14865.714
11.583496,229,1627,-1606,230,-149,157,-3109.592,6130.168,371.187,14867.721
11.603485,160,1242,-1321,125,-96,298,-3149.720,6129.526,326.632,14860.583
11.623474,83,1288,-1200,-13,-178,302,-3169.540,6159.100,283.087,14845.026,71,-258,-435
11.643433,-85,1459,-1348,-222,-217,151,-3157.038,6218.521,262.341,14823.283
11.663819,-67,1556,-1429,-383,-211,-67,-3110.742,6293.564,255.531,14801.503
11.683411,90,1640,-1325,-439,-239,-241,-3047.192,6367.330,247.637,14783.296
11.703431,337,1681,-1308,-401,-291,-284,-2986.943,6438.097,234.445,14765.146,71,-258,-435,98507,26170
11.723389,374,1548,-1251,-385,-252,-217,-2958.868,6501.567,225.903,14743.105,84,-252,-443
11.743378,325,1432,-1105,-353,-144,-15,-2971.610,6561.710,213.426,14714.054
11.763733,262,1314,-1108,-360,-47,194,-3013.844,6617.921,211.177,14680.283
11.783326,152,1229,-1087,-357,62,290,-3065.274,6670.459,219.571,14645.692
11.803345,48,1142,-1080,-352,130,275,-3113.131,6722.437,233.766,14611.572
11.823334,62,1306,-1105,-358,116,243,-3153.011,6775.220,254.660,14578.254,89,-256,-434
11.843293,19,1326,-1206,-372,153,175,-3186.401,6827.860,287.690,14545.784
11.863678,19,1367,-1288,-376,187,123,-3213.284,6874.634,321.339,14517.107
11.883271,21,1467,-1284,-321,167,91,-3235.055,6909.931,351.200,14494.805
11.903260,-29,1526,-1337,-231,158,63,-3253.212,6929.051,375.421,14481.000
11.923249,29,1596,-1400,-110,124,52,-3266.196,6933.526,388.820,14475.580,99,-252,-425
11.943238,40,1702,-1504,-16,72,41,-3277.648,6926.158,395.077,14476.350
11.963593,80,1753,-1532,63,47,54,-3287.428,6908.351,388.262,14482.824
11.983185,204,1643,-1642,143,-19,64,-3292.996,6878.090,371.235,14496.402
12.003174,351,1631,-1691,233,-60,53,-3297.813,6841.508,347.866,14513.188
12.023163,288,1657,-1652,239,-65,65,-3311.647,6802.392,327.648,14528.886,93,-241,-417
12.043122,344,1905,-1474,263,-16,117,-3336.352,6755.113,303.028,14545.818
12.063507,543,2088,-1709,338,-10,174,-3366.641,6706.529,289.304,14561.591
12.083100,530,1958,-1919,272,124,158,-3414.749,6665.172,297.206,14569.217
12.103089,331,1678,-1772,215,247,244,-3475.497,6620.031,310.418,14575.156
12.123078,343,1583,-1498,244,245,264,-3520.147,6571.243,314.557,14586.426,84,-228,-420
12.143097,417,1556,-1230,278,134,138,-3535.177,6528.965,323.523,14601.572
12.163453,371,1561,-944,210,152,-19,-3548.720,6506.095,356.461,14607.727
12.183045,382,1839,-973,23,282,-9,-3574.168,6513.560,420.033,14596.501
12.203034,306,1846,-1246,-198,445,-8,-3609.261,6537.168,515.050,14574.252
12.222992,131,1780,-1408,-279,574,-2,-3646.691,6550.646,612.901,14555.084,98,-241,-428,98511,26170
12.242981,25,1681,-1495,-159,552,-11,-3673.575,6543.204,690.815,14548.180
12.263337,-37,1517,-1478,-10,404,-49,-3675.321,6520.401,744.810,14555.311
12.282959,20,1428,-1445,101,235,-177,-3643.989,6486.308,780.547,14576.533
12.302948,77,1325,-1394,204,92,-329,-3586.615,6440.188,800.834,14610.074
12.322937,106,1282,-1258,297,-24,-421,-3515.132,6388.033,808.180,14649.886,101,-245,-432
12.342896,164,1170,-1219,331,-89,-460,-3435.967,6339.755,805.720,14689.720
12.363282,240,1130,-1197,298,-165,-469,-3353.054,6299.829,795.331,14726.577
12.382874,299,1108,-1208,255,-214,-453,-3275.275,6270.988,779.106,14757.226
12.402863,309,1165,-1179,178,-231,-387,-3209.154,6256.292,762.234,14778.855
12.422852,315,1293,-1254,84,-205,-315,-3157.786,6260.468,749.758,14788.787,80,-240,-427
12.442841,329,1355,-1340,-44,-162,-220,-3121.738,6279.688,741.771,14788.694
12.463227,345,1405,-1399,-131,-125,-141,-3098.278,6307.474,732.742,14782.252
12.482819,379,1429,-1467,-159,-119,-70,-3084.195,6335.412,721.420,14773.804
12.502808,377,1462,-1540,-147,-103,-26,-3076.902,6358.823,709.082,14765.862
12.522766,345,1505,-1619,-121,-93,8,-3073.645,6379.217,698.184,14758.261,71,-243,-430
12.542755,285,1580,-1790,-115,-68,15,-3069.388,6396.155,691.516,14752.128
12.563111,303,1721,-1868,-91,-59,-16,-3059.180,6406.981,680.835,14750.048
12.582734,394,1731,-1930,-35,-103,-38,-3046.047,6406.221,662.181,14753.944
12.602692,362,1718,-1886,69,-121,-31,-3036.455,6382.860,632.987,14767.322
12.622712,262,1783,-1975,227,-169,-9,-3011.246,6347.528,593.984,14789.317,68,-254,-425
12.642701,60,1850,-2229,262,-241,-139,-2958.048,6314.503,564.331,14815.329
12.663056,180,1928,-1827,220,-263,-289,-2895.498,6285.802,517.423,14841.580
12.682648,187,1884,-1759,258,-411,-200,-2851.985,6259.762,453.565,14863.084
12.702698,42,1538,-1504,224,-368,-58,-2833.857,6240.721,391.847,14876.308
12.722626,121,1354,-1170,166,-343,68,-2817.211,6243.499,323.768,14879.941,64,-243,-447,98512,26170
12.742615,23,1449,-1338,-20,-414,32,-2780.427,6287.217,268.349,14869.551
12.762940,-73,1510,-1385,-291,-419,-104,-2720.508,6360.065,228.397,14850.309
12.782563,86,1684,-1424,-425,-415,-237,-2644.075,6439.681,194.550,14830.272
12.802521,283,1644,-1227,-419,-438,-306,-2569.836,6515.974,157.484,14810.424
12.822510,346,1545,-1162,-395,-406,-246,-2519.204,6584.222,124.879,14789.235,82,-256,-441
12.842499,334,1413,-1128,-345,-295,-119,-2498.604,6642.947,95.359,14766.671
12.862854,247,1248,-1056,-311,-217,35,-2504.535,6697.127,63.599,14741.343
12.882447,180,1253,-1049,-297,-174,166,-2522.997,6745.147,35.146,14716.375
12.902436,142,1226,-1011,-281,-147,187,-2539.965,6794.713,7.403,14690.672
12.922455,97,1280,-1053,-300,-145,166,-2551.498,6845.269,-7.646,14665.181,86,-253,-442
12.942414,93,1359,-1117,-316,-76,92,-2557.490,6896.585,-8.729,14640.072
12.962799,52,1415,-1231,-321,-16,37,-2558.739,6942.356,2.376,14618.207
12.982392,-62,1481,-1286,-272,24,-15,-2553.231,6972.829,14.302,14604.653
13.002381,-35,1573,-1317,-156,-5,-53,-2535.446,6983.938,17.885,14602.439
13.022339,-84,1704,-1326,-9,-73,-109,-2505.279,6972.402,9.442,14613.163,92,-254,-441
13.042328,5,1774,-1429,153,-137,-145,-2463.833,6939.721,-10.164,14635.748
13.062714,160,1745,-1703,289,-203,-195,-2409.604,6890.188,-34.738,14668.106
13.082306,209,1820,-1689,378,-228,-264,-2350.638,6831.700,-59.876,14704.904
13.102326,223,1924,-1569,414,-218,-260,-2303.666,6766.100,-89.490,14742.471
13.122284,413,2246,-1495,470,-213,-148,-2276.761,6695.980,-126.687,14778.349,90,-227,-424
13.142273,519,2215,-1762,490,-164,-49,-2270.947,6632.548,-141.427,14807.685
13.162629,432,1818,-1740,387,31,19,-2295.534,6568.857,-148.834,14832.192
13.182251,421,1565,-1451,423,96,178,-2327.655,6496.070,-167.625,14859.018
13.202301,484,1384,-1164,440,0,165,-2341.533,6439.497,-187.596,14881.208
13.222199,350,1712,-1071,304,-14,56,-2345.401,6411.497,-183.703,14892.733,103,-242,-441,98512,26180
13.242188,327,2001,-1279,90,111,-40,-2341.180,6417.405,-144.764,14891.282
13.262574,137,1857,-1547,-107,248,-145,-2335.129,6430.845,-79.796,14886.923
13.282166,58,1777,-1584,-100,320,-188,-2315.646,6429.624,-25.084,14890.686
13.302124,-86,1568,-1551,39,170,-243,-2271.606,6405.847,3.603,14907.728
13.322113,-67,1299,-1443,197,-9,-342,-2194.806,6369.309,4.262,14934.863
13.342102,-47,1175,-1370,272,-235,-468,-2079.853,6329.116,-13.136,14968.359,93,-251,-451
13.362458,2,1133,-1314,296,-363,-654,-1927.966,6293.169,-36.450,15003.769
13.382080,21,1151,-1313,258,-492,-818,-1746.058,6269.605,-74.572,15035.731
13.402069,44,1206,-1369,186,-656,-920,-1542.059,6262.424,-136.879,15060.571
13.422058,66,1258,-1366,96,-839,-964,-1320.876,6268.544,-224.265,15077.990
13.442017,136,1298,-1394,40,-1015,-994,-1084.325,6283.907,-334.259,15088.421,102,-260,-449
13.462403,218,1355,-1389,-10,-1153,-1018,-841.085,6305.914,-459.713,15091.459
13.481995,316,1411,-1267,-49,-1237,-1003,-599.076,6331.783,-601.859,15087.174
13.501984,336,1489,-1285,-77,-1311,-956,-359.506,6363.323,-749.049,15074.921
13.522004,369,1483,-1424,-128,-1316,-947,-117.458,6400.175,-897.586,15055.023
13.541962,308,1439,-1494,-164,-1334,-969,128.733,6435.768,-1048.662,15029.972,82,-273,-457
13.562317,236,1528,-1434,-158,-1375,-973,382.107,6466.041,-1208.567,15000.637
13.581910,165,1709,-1444,-138,-1444,-1003,647.499,6494.717,-1373.282,14964.923
13.601929,83,1791,-1623,-144,-1496,-1054,918.927,6519.106,-1545.082,14923.303
13.621888,78,1735,-1544,-103,-1573,-1031,1197.243,6518.116,-1745.502,14881.849
13.641877,242,1914,-1122,55,-1809,-988,1501.040,6498.309,-1980.473,14833.476,98,-267,-458
13.662262,-92,1866,-1659,64,-1999,-1121,1834.920,6504.780,-2189.603,14763.535
13.681855,-347,1983,-1478,-104,-1834,-1360,2171.541,6504.265,-2394.122,14686.135
13.701844,-297,2179,-1562,12,-1986,-1259,2515.909,6484.149,-2616.606,14601.877
13.721833,-281,2165,-1353,60,-1981,-1309,2863.931,6439.590,-2829.333,14517.571,98,-267,-458,98512,26180
13.741791,-158,1993,-1174,240,-2076,-1288,3215.941,6370.992,-3049.721,14429.234,108,-290,-478
13.762207,-117,1741,-994,301,-2072,-1299,3566.452,6304.518,-3272.032,14326.992
13.781800,-17,1792,-992,202,-2114,-1297,3912.814,6241.349,-3504.407,14208.800
13.801789,31,1814,-1051,171,-2164,-1275,4250.874,6171.182,-3725.277,14085.607
13.821778,-75,1747,-1043,236,-2021,-1271,4581.387,6092.724,-3909.579,13965.681
13.841767,-119,1641,-1099,327,-1839,-1302,4906.427,6008.457,-4071.635,13844.950,131,-294,-474
13.862122,-119,1653,-1044,355,-1779,-1298,5226.486,5918.546,-4224.560,13720.174
13.881745,-53,1696,-1077,380,-1748,-1294,5540.894,5825.076,-4370.597,13590.449
13.901703,-98,1740,-1112,387,-1700,-1284,5846.323,5731.633,-4503.573,13458.163
13.921753,-79,1755,-1105,392,-1626,-1271,6142.493,5637.177,-4628.475,13323.088
13.941712,-124,1777,-1180,395,-1581,-1241,6429.867,5541.187,-4740.745,13187.601,164,-289,-486
13.962037,-179,1811,-1202,428,-1500,-1230,6711.050,5439.841,-4840.985,13052.595
13.981659,-213,1856,-1223,468,-1461,-1210,6987.947,5329.940,-4931.965,12917.875
14.001648,-181,1887,-1316,530,-1434,-1197,7263.301,5212.269,-5014.718,12781.422
14.021607,-71,1824,-1329,573,-1426,-1199,7537.553,5085.076,-5091.773,12642.649
14.041596,60,1800,-1378,625,-1426,-1190,7805.771,4948.584,-5167.276,12502.645,192,-307,-485
14.061982,261,1731,-1331,635,-1433,-1140,8058.134,4811.914,-5247.648,12361.617
14.081574,352,1612,-1211,556,-1419,-1057,8283.596,4688.084,-5333.372,12222.703
14.101563,348,1506,-1140,432,-1303,-956,8483.825,4584.301,-5414.379,12088.376
14.121521,302,1400,-1146,330,-1179,-902,8668.023,4498.421,-5488.371,11955.869
14.141541,250,1429,-1179,255,-1081,-887,8844.154,4425.594,-5558.911,11820.702,223,-309,-494
14.161896,290,1586,-1252,196,-1043,-901,9018.006,4363.535,-5625.250,11680.202
14.181519,258,1760,-1502,156,-989,-943,9189.624,4314.480,-5685.106,11534.777
14.201477,276,1713,-1592,114,-930,-975,9357.136,4266.429,-5740.267,11389.747
14.221466,353,1575,-1385,140,-937,-939,9519.300,4201.845,-5800.020,11248.228,223,-309,-494,98509,26180
14.241455,395,1518,-1200,187,-999,-855,9671.636,4124.862,-5863.000,11113.309,237,-316,-487
14.261811,425,1492,-1064,203,-996,-766,9808.533,4049.450,-5927.885,10985.911
14.281403,437,1635,-1054,138,-937,-687,9923.067,3992.412,-5995.653,10866.506
14.301392,447,1862,-1123,7,-813,-606,10012.426,3962.488,-6063.857,10757.094
14.321381,348,1963,-1431,-127,-646,-542,10080.981,3965.558,-6117.160,10661.330
14.341370,148,1808,-1517,-184,-389,-516,10143.717,3975.698,-6145.938,10581.196,256,-316,-489
14.361756,23,1616,-1435,-60,-336,-479,10219.827,3959.583,-6158.430,10506.475
14.381348,49,1515,-1331,144,-406,-499,10315.042,3918.948,-6161.050,10426.823
14.401337,97,1549,-1423,265,-510,-557,10424.741,3866.064,-6161.009,10337.104
14.421296,239,1648,-1334,314,-565,-628,10541.508,3807.634,-6164.820,10237.625
14.441285,381,1633,-1264,292,-623,-650,10648.561,3752.560,-6177.044,10139.330,273,-319,-485
14.461670,395,1679,-1248,232,-566,-577,10735.592,3707.206,-6188.078,10057.177
14.481263,359,1679,-1316,183,-459,-457,10802.795,3671.196,-6196.311,9993.153
14.501252,273,1697,-1356,143,-347,-355,10855.855,3643.315,-6202.069,9942.154
14.521241,304,1684,-1345,118,-291,-286,10900.392,3615.151,-6209.978,9898.674
14.541230,317,1645,-1317,106,-281,-226,10938.981,3584.822,-6216.953,9862.691,265,-296,-463
14.561585,319,1574,-1338,118,-261,-178,10973.807,3553.832,-6221.595,9832.245
14.581208,319,1560,-1317,131,-229,-159,11008.202,3524.872,-6221.251,9804.398
14.601197,328,1589,-1335,141,-208,-168,11042.968,3497.883,-6217.207,9777.497
14.621155,355,1593,-1338,148,-183,-168,11075.033,3473.138,-6210.597,9754.223
14.641144,346,1602,-1356,150,-151,-144,11101.520,3450.869,-6202.477,9737.170,283,-304,-475
14.661499,346,1577,-1364,135,-111,-104,11120.892,3433.153,-6193.977,9726.731
14.681122,310,1567,-1383,108,-76,-65,11133.869,3419.307,-6186.466,9721.542
14.701111,299,1568,-1374,86,-49,-35,11143.425,3408.561,-6180.529,9718.141
14.721100,296,1558,-1385,63,-39,-26,11150.636,3400.497,-6175.083,9716.157,283,-304,-475,98510,26180
14.741089,316,1570,-1416,57,-19,-19,11156.899,3393.510,-6169.591,9714.899,289,-301,-467
14.761414,314,1588,-1377,51,-17,-15,11162.089,3387.301,-6164.372,9714.418
14.781037,311,1573,-1384,47,-14,-9,11165.859,3382.043,-6159.160,9715.223
14.801026,331,1573,-1387,44,2,0,11167.186,3377.824,-6153.309,9718.872
14.821015,321,1576,-1433,41,8,20,11166.711,3373.224,-6147.456,9724.718
14.840973,313,1571,-1402,43,17,32,11164.677,3368.619,-6140.816,9732.841,294,-294,-472
14.861359,316,1597,-1414,42,23,47,11160.061,3364.839,-6134.530,9743.401
14.880951,307,1553,-1400,35,40,62,11153.126,3363.455,-6127.310,9756.354
14.900940,311,1526,-1390,29,56,72,11145.716,3362.696,-6119.681,9769.863
14.920960,308,1550,-1384,33,59,70,11139.439,3360.850,-6111.117,9783.009
14.940918,302,1550,-1406,42,50,62,11134.962,3358.563,-6102.475,9794.280,296,-308,-470
14.961274,332,1555,-1399,44,46,48,11131.789,3356.496,-6093.979,9803.879
14.980896,312,1560,-1407,42,44,43,11128.102,3354.930,-6084.987,9814.181
15.000855,309,1560,-1382,43,53,48,11124.149,3353.780,-6075.274,9825.068
15.020844,305,1548,-1380,44,53,47,11120.068,3353.013,-6065.424,9836.028
15.040833,314,1554,-1394,41,56,49,11115.695,3352.958,-6055.648,9847.007,277,-315,-472
15.061188,317,1564,-1402,38,62,45,11110.834,3354.209,-6044.984,9858.613
15.080811,288,1548,-1406,39,73,48,11105.595,3356.019,-6033.224,9871.095
15.100800,301,1548,-1409,41,82,51,11099.764,3358.097,-6021.155,9884.308
15.120758,276,1563,-1400,41,81,56,11093.605,3360.292,-6009.266,9897.703
15.140808,272,1554,-1400,36,78,52,11088.141,3363.163,-5997.685,9909.867,284,-310,-467
15.161133,272,1536,-1453,37,81,45,11082.788,3365.323,-5986.490,9921.883
15.180725,277,1546,-1412,39,77,50,11077.490,3366.565,-5976.076,9933.649
15.200714,278,1550,-1443,34,64,47,11072.368,3369.900,-5966.831,9943.782
15.220703,271,1527,-1409,19,70,36,11067.284,3373.662,-5958.242,9953.311,284,-310,-467,98509,26180
15.240693,292,1553,-1400,16,61,37,11062.132,3376.430,-5951.526,9962.114,285,-304,-469
15.261048,274,1557,-1384,12,57,42,11056.126,3379.198,-5945.428,9971.480
15.280671,294,1553,-1455,9,54,45,11050.181,3381.928,-5940.388,9980.144
15.300629,275,1560,-1441,2,51,42,11044.408,3383.638,-5935.620,9988.788
15.320618,278,1544,-1463,12,36,48,11039.358,3383.478,-5930.996,9997.168
15.340607,277,1548,-1416,16,38,44,11034.238,3383.284,-5926.140,10005.762,278,-311,-473
15.360993,275,1558,-1435,18,35,47,11029.201,3383.213,-5921.069,10014.338
15.380585,285,1568,-1425,16,40,45,11024.332,3383.063,-5915.869,10022.820
15.400574,285,1548,-1429,21,38,45,11019.624,3383.348,-5910.072,10031.317
15.420624,271,1549,-1415,20,43,42,11015.150,3383.241,-5903.513,10040.125
15.440522,288,1542,-1421,26,39,44,11010.822,3382.374,-5897.185,10048.880,279,-315,-479
15.460907,277,1532,-1441,28,41,42,11006.646,3381.909,-5890.825,10057.337
15.480500,291,1555,-1434,24,40,43,11002.061,3382.365,-5884.058,10066.159
15.500489,272,1537,-1426,23,47,42,10997.130,3383.303,-5877.383,10075.127
15.520478,269,1542,-1422,20,51,45,10991.685,3384.624,-5870.637,10084.554
15.540436,264,1559,-1402,18,50,46,10986.251,3385.868,-5864.167,10093.818,280,-311,-475
15.560822,282,1542,-1415,19,52,43,10981.410,3387.688,-5857.317,10102.448
15.580414,288,1554,-1442,19,49,37,10977.320,3389.283,-5850.517,10110.296
15.600403,286,1546,-1457,20,49,34,10973.442,3390.688,-5843.245,10118.237
15.620392,260,1552,-1439,21,48,33,10969.939,3392.983,-5836.306,10125.269
15.640381,257,1542,-1431,16,49,26,10966.489,3396.355,-5829.879,10131.576,279,-313,-477
15.660736,267,1545,-1432,11,49,23,10963.052,3400.108,-5823.939,10137.451
15.680329,257,1551,-1417,7,49,20,10959.640,3404.248,-5818.162,10143.067
15.700348,260,1554,-1417,4,47,22,10955.742,3408.801,-5812.908,10148.759
15.720307,251,1566,-1449,1,50,24,10951.054,3413.926,-5807.947,10154.934,279,-313,-477,98507,26180
15.740296,261,1540,-1429,-4,55,26,10945.514,3420.683,-5803.043,10161.436,278,-309,-475
15.760682,267,1566,-1382,-11,61,27,10939.042,3427.528,-5797.935,10169.012
15.780274,256,1562,-1442,-11,65,36,10931.672,3435.184,-5791.975,10177.746
15.800263,293,1569,-1427,-8,77,42,10922.667,3442.554,-5785.281,10188.725
15.820221,255,1552,-1384,-4,84,58,10912.237,3451.700,-5778.201,10200.817
15.840210,256,1583,-1421,-19,98,57,10900.778,3463.288,-5771.327,10213.025,271,-314,-478
15.860596,249,1567,-1388,-27,106,59,10886.881,3476.004,-5764.802,10227.204
15.880188,274,1564,-1384,-32,120,80,10870.654,3490.136,-5758.404,10243.243
15.900177,261,1582,-1386,-43,133,86,10852.385,3507.948,-5750.641,10260.877
15.920166,268,1567,-1397,-53,155,92,10831.455,3528.027,-5742.696,10280.538
15.940155,292,1566,-1370,-61,176,108,10806.661,3550.447,-5733.707,10303.903,280,-319,-475
15.960511,262,1566,-1388,-69,201,131,10777.430,3575.892,-5723.579,10331.315
15.980103,283,1551,-1395,-79,230,155,10744.152,3604.024,-5712.802,10362.120
16.000092,283,1563,-1383,-95,254,176,10706.316,3635.453,-5701.110,10396.685
16.020081,283,1567,-1384,-104,286,199,10664.410,3670.002,-5687.376,10435.067
16.040070,260,1575,-1385,-113,318,219,10617.202,3708.883,-5672.714,10477.354,280,-323,-485
16.060425,273,1581,-1350,-134,354,245,10563.886,3752.850,-5657.162,10523.895
16.080048,276,1603,-1335,-160,393,273,10503.449,3803.228,-5641.761,10574.449
16.100037,304,1598,-1362,-193,439,298,10434.518,3861.944,-5625.210,10630.083
16.119995,317,1628,-1331,-226,501,338,10354.354,3926.882,-5606.444,10694.399
16.139984,319,1629,-1324,-253,563,406,10259.123,3998.808,-5586.141,10769.883,279,-317,-483
16.160431,325,1648,-1278,-288,645,491,10148.388,4076.436,-5564.845,10856.372
16.179963,351,1677,-1269,-319,706,576,10022.586,4160.214,-5542.162,10952.637
16.199952,393,1669,-1212,-351,776,650,9882.275,4249.445,-5517.503,11057.823
16.219941,414,1687,-1258,-377,838,722,9728.218,4344.079,-5489.397,11171.066,279,-317,-483,98510,26180
16.239899,404,1661,-1269,-400,915,782,9560.036,4445.330,-5456.453,11291.913,261,-314,-480
16.260285,393,1652,-1266,-426,988,843,9379.458,4550.681,-5419.600,11418.425
16.279877,394,1643,-1319,-443,1040,892,9188.643,4657.589,-5380.276,11548.322
16.299866,397,1600,-1286,-458,1065,933,8990.881,4764.350,-5340.831,11678.012
16.319855,397,1584,-1290,-471,1071,948,8790.000,4872.376,-5300.969,11803.855
16.339844,408,1617,-1270,-489,1072,940,8588.416,4981.638,-5259.985,11924.360,258,-317,-483
16.360260,472,1649,-1264,-495,1072,919,8386.612,5090.782,-5217.580,12039.973
16.379792,467,1648,-1279,-497,1072,906,8182.849,5199.724,-5169.966,12153.630
16.399811,499,1645,-1271,-481,1105,901,7974.847,5306.141,-5115.708,12268.318
16.419770,522,1613,-1227,-459,1137,923,7760.926,5410.447,-5055.208,12384.482
16.439759,492,1636,-1186,-441,1171,943,7541.147,5515.291,-4988.047,12500.699,245,-307,-489
16.460114,468,1650,-1213,-441,1215,950,7316.729,5622.338,-4914.799,12614.871
16.479737,464,1657,-1199,-449,1250,941,7091.086,5731.181,-4834.713,12725.212
16.499695,432,1627,-1249,-443,1274,917,6867.488,5837.180,-4747.068,12832.214
16.519715,408,1611,-1226,-404,1287,888,6649.660,5938.100,-4652.298,12934.935
16.539704,441,1590,-1278,-364,1275,839,6441.604,6031.553,-4552.451,13032.142,230,-300,-496
16.560028,418,1562,-1311,-314,1244,783,6243.614,6116.972,-4449.455,13123.937
16.579651,436,1575,-1296,-270,1214,732,6056.177,6197.146,-4346.503,13208.385
16.599640,475,1605,-1279,-256,1167,673,5877.772,6273.290,-4244.384,13286.017
16.619629,494,1576,-1285,-240,1117,631,5705.688,6345.268,-4143.063,13358.636
16.639588,505,1594,-1247,-220,1102,605,5534.979,6413.039,-4040.911,13429.200,216,-300,-485
16.659974,508,1595,-1197,-202,1095,607,5361.065,6477.359,-3936.842,13499.611
16.679596,493,1569,-1217,-187,1110,630,5182.099,6537.941,-3830.897,13570.587
16.699555,502,1569,-1221,-171,1125,657,4997.736,6594.158,-3725.921,13641.578
16.719574,514,1613,-1292,-162,1118,689,4809.487,6646.993,-3621.537,13711.536,216,-300,-485,98511,26180
16.739533,503,1572,-1369,-153,1117,710,4619.169,6693.570,-3520.063,13780.566,199,-295,-478
16.759888,502,1529,-1422,-129,1081,730,4430.889,6730.103,-3425.340,13848.300
16.779511,538,1516,-1404,-92,1017,745,4248.872,6755.243,-3342.147,13913.277
16.799500,498,1571,-1429,-56,909,739,4080.208,6773.169,-3268.729,13972.362
16.819489,283,1609,-1605,-50,824,673,3931.361,6792.835,-3198.911,14021.561
16.839447,180,1766,-1609,-64,751,561,3802.796,6805.162,-3134.632,14065.490,173,-288,-478
16.859803,346,2000,-1488,2,624,517,3684.572,6801.158,-3094.058,14107.814
16.879425,459,2099,-1364,53,465,581,3556.751,6793.860,-3074.147,14148.429
16.899384,429,1926,-1561,-8,445,666,3416.636,6800.570,-3052.938,14184.281
16.919373,362,1717,-1444,-105,499,685,3268.116,6819.438,-3036.262,14213.769
16.939392,241,1646,-1278,-205,493,723,3112.289,6853.919,-3019.884,14235.631,164,-282,-463
16.959748,162,1689,-1218,-311,517,714,2962.253,6905.166,-2998.110,14247.474
16.979340,134,1705,-1265,-385,545,610,2829.528,6972.467,-2958.404,14249.974
16.999329,94,1710,-1326,-450,612,436,2718.930,7051.764,-2899.368,14244.618
17.019318,33,1582,-1376,-467,644,258,2635.428,7126.923,-2826.480,14237.554
17.039276,23,1550,-1358,-367,589,114,2581.017,7181.043,-2756.467,14234.054,158,-290,-471
17.059662,50,1463,-1306,-232,457,21,2549.014,7213.388,-2697.149,14234.830
17.079255,87,1401,-1252,-108,372,-35,2529.744,7233.906,-2643.789,14237.865
17.099244,87,1389,-1195,-60,305,-56,2516.513,7249.833,-2594.917,14241.100
17.119233,112,1407,-1199,-51,280,-73,2507.847,7268.337,-2548.116,14241.647
17.139222,88,1435,-1219,-78,263,-97,2501.694,7291.467,-2501.177,14239.227,149,-283,-464
17.159607,52,1493,-1217,-100,257,-110,2495.588,7314.046,-2457.296,14236.358
17.179200,58,1627,-1205,-86,235,-94,2489.610,7332.961,-2417.352,14234.513
17.199189,90,1670,-1268,-69,214,-78,2482.107,7347.670,-2379.750,14234.575
17.219178,92,1686,-1325,-37,216,-58,2471.547,7357.234,-2341.981,14237.736,149,-283,-464,98509,26180
17.239136,64,1745,-1269,-7,223,-34,2455.064,7358.381,-2302.739,14246.393,145,-265,-458
17.259522,19,1798,-1274,49,252,9,2428.058,7354.079,-2262.924,14259.617
17.279114,17,1903,-1264,75,283,74,2389.575,7345.852,-2219.531,14277.167
17.299103,-45,1949,-1292,101,343,130,2335.760,7331.857,-2171.334,14300.659
17.319092,-89,1916,-1394,151,399,219,2264.578,7305.360,-2119.398,14333.422
17.339051,-111,1809,-1396,243,451,316,2180.947,7259.109,-2068.162,14377.307,132,-264,-457
17.359436,-87,1747,-1340,370,450,396,2095.229,7187.891,-2024.703,14431.917
17.379029,-31,1853,-1296,525,385,438,2014.502,7095.283,-1991.466,14493.731
17.399018,278,1781,-1630,616,316,441,1947.430,7005.041,-1962.942,14550.574
17.419007,358,1696,-1906,508,295,330,1891.404,6943.365,-1926.811,14592.296
17.438996,309,1535,-1803,328,306,234,1845.336,6899.999,-1897.173,14622.616,123,-271,-448
17.459351,296,1539,-1294,245,192,197,1814.364,6860.305,-1887.729,14646.372
17.478974,293,1855,-902,226,92,156,1797.154,6830.574,-1886.370,14662.556
17.498963,317,1937,-1018,144,8,88,1789.386,6828.336,-1882.616,14665.030
17.518921,129,1756,-1328,-17,88,-4,1784.395,6843.274,-1856.659,14661.984
17.538910,15,1752,-1431,-64,164,-76,1800.043,6850.618,-1830.248,14659.962,120,-285,-455
17.559296,-104,1662,-1389,30,48,-191,1849.682,6836.238,-1817.085,14662.134
17.578949,-7,1550,-1280,168,-151,-310,1936.326,6802.598,-1830.206,14664.961
17.598847,71,1489,-1239,246,-378,-425,2053.448,6762.996,-1859.565,14663.652
17.618866,140,1437,-1239,253,-487,-548,2188.844,6725.487,-1895.045,14656.774
17.638855,181,1445,-1249,225,-572,-607,2333.040,6694.876,-1940.839,14642.545,115,-285,-464
17.659211,227,1473,-1258,155,-631,-625,2480.551,6669.892,-1999.183,14621.836
17.678803,298,1476,-1202,118,-710,-613,2627.964,6646.628,-2072.286,14596.479
17.698792,349,1524,-1160,85,-770,-579,2769.601,6627.613,-2152.371,14567.319
17.718781,334,1537,-1213,43,-767,-543,2902.477,6614.881,-2230.763,14535.409,115,-285,-464,98511,26180
17.738770,356,1596,-1212,5,-724,-509,3025.449,6604.610,-2306.694,14503.116,124,-272,-467
17.759125,365,1573,-1222,-4,-692,-459,3138.719,6594.643,-2381.041,14471.531
17.778717,371,1534,-1246,-11,-658,-423,3245.284,6585.829,-2452.486,14440.074
17.798706,383,1546,-1286,-18,-630,-402,3348.897,6577.447,-2522.482,14408.143
17.818726,385,1630,-1314,-26,-619,-395,3450.736,6570.038,-2590.410,14375.403
17.838684,335,1699,-1319,-26,-600,-397,3551.869,6558.296,-2653.403,14344.611,124,-284,-477
17.859040,299,1810,-1288,28,-587,-396,3656.223,6532.516,-2714.680,14318.666
17.878632,289,1961,-1323,130,-612,-393,3762.844,6493.196,-2778.016,14296.764
17.898651,269,1958,-1564,187,-638,-378,3869.181,6454.466,-2842.972,14273.130
17.918610,113,1721,-1830,140,-637,-376,3968.662,6422.418,-2904.831,14247.795
17.938599,32,1557,-1473,121,-580,-343,4067.238,6377.554,-2971.080,14226.471,125,-295,-471
17.958985,-115,1432,-1295,194,-692,-309,4171.828,6322.143,-3042.397,14205.830
17.978577,-183,1370,-1164,250,-701,-342,4294.830,6261.822,-3118.003,14179.475
17.998566,-216,1517,-1125,255,-835,-455,4448.539,6206.033,-3207.066,14136.683
18.018525,-87,1793,-1228,190,-964,-620,4625.282,6163.915,-3304.416,14075.837
18.038514,65,1989,-1354,90,-1012,-733,4801.402,6140.106,-3400.020,14004.318,144,-304,-478
18.058899,246,2027,-1368,-28,-965,-721,4954.843,6133.080,-3496.229,13930.063
18.078492,277,1937,-1547,-117,-848,-613,5076.826,6129.760,-3579.170,13866.393
18.098481,206,1697,-1287,-91,-715,-457,5172.930,6113.269,-3658.535,13817.354
18.118470,269,1596,-1108,-27,-665,-309,5247.746,6095.912,-3738.546,13775.330
18.138459,225,1541,-1045,-78,-602,-208,5302.696,6091.702,-3814.140,13735.369,154,-302,-485
18.158814,78,1532,-1141,-154,-503,-163,5348.704,6103.393,-3874.104,13695.499
18.178406,50,1574,-1107,-206,-382,-193,5395.915,6125.616,-3921.440,13653.522
18.198395,21,1666,-1100,-222,-331,-244,5445.336,6151.460,-3957.354,13611.857
18.218384,-48,1770,-1128,-196,-265,-277,5492.435,6176.018,-3977.874,13575.784,154,-302,-485,98510,26180
18.238373,-157,1844,-1069,-137,-182,-262,5532.094,6187.412,-3986.341,13551.988,174,-313,-483
18.258728,-116,1833,-985,-3,-136,-183,5563.084,6175.076,-3990.189,13543.794
18.278351,-38,1728,-1013,134,-121,-86,5582.622,6147.361,-3985.126,13549.852
18.298340,-51,1589,-1124,224,-42,-17,5594.260,6110.310,-3966.633,13567.226
18.318299,-109,1446,-1133,304,24,12,5605.641,6057.099,-3942.626,13593.361
18.338288,49,1460,-928,421,-7,39,5623.325,5983.736,-3928.653,13622.563,182,-309,-482
18.358673,258,1739,-1055,467,-127,56,5644.418,5917.921,-3923.798,13643.973
18.378266,588,1893,-1595,342,-115,0,5659.233,5902.079,-3920.164,13645.742
18.398255,493,1866,-1632,-38,14,-69,5644.566,5931.584,-3918.472,13639.508
18.418244,295,2000,-1516,-202,115,66,5612.674,5957.881,-3927.997,13638.468
18.438233,439,1981,-1298,-176,32,152,5589.061,5966.463,-3955.288,13636.526,182,-302,-478
18.458588,352,1880,-1258,-96,-111,150,5576.436,5964.905,-3980.961,13634.905
18.478180,210,1770,-1157,-33,-96,77,5581.416,5965.791,-4002.909,13626.052
18.498169,109,1690,-1374,-78,-158,-45,5610.497,5983.378,-4021.978,13600.758
18.518158,53,1633,-1407,-143,-150,-248,5671.148,6002.754,-4031.298,13564.258
18.538147,88,1643,-1289,-69,-232,-421,5761.601,6004.775,-4038.826,13522.941,186,-310,-483
18.558503,152,1686,-1179,56,-321,-523,5868.911,5992.359,-4050.291,13478.801
18.578125,279,1678,-1100,109,-404,-554,5976.787,5973.280,-4070.908,13433.580
18.598084,318,1629,-1001,103,-439,-500,6068.413,5956.589,-4101.552,13390.523
18.618073,307,1602,-965,35,-411,-392,6138.886,5950.301,-4135.643,13350.651
18.638062,294,1625,-1031,-52,-354,-306,6192.976,5957.838,-4171.873,13310.977,186,-301,-488
18.658417,304,1625,-1058,-141,-308,-258,6236.194,5974.837,-4210.214,13271.048
18.678040,321,1656,-1056,-189,-277,-219,6271.392,5993.815,-4247.829,13233.866
18.698029,316,1698,-1084,-190,-250,-181,6299.329,6013.088,-4281.797,13200.866
18.718018,292,1725,-1119,-181,-204,-150,6321.468,6032.942,-4309.629,13172.136,186,-301,-488,98509,26180
18.738007,270,1686,-1191,-169,-153,-133,6339.890,6051.758,-4329.065,13148.257,182,-304,-485
18.758362,239,1660,-1154,-132,-109,-122,6357.989,6063.940,-4341.413,13129.820
18.777954,235,1636,-1082,-73,-96,-111,6376.795,6068.662,-4351.726,13115.095
18.798005,251,1597,-1102,-33,-101,-102,6395.089,6070.646,-4360.291,13102.419
18.817932,253,1590,-1077,-20,-90,-95,6412.517,6069.997,-4367.649,13091.747
18.837922,281,1616,-1100,0,-89,-84,6430.224,6065.680,-4374.840,13082.658,203,-298,-474
18.858277,278,1612,-1156,18,-98,-83,6451.437,6060.649,-4381.967,13072.157
18.877869,299,1608,-1225,16,-106,-107,6476.666,6053.660,-4388.680,13060.663
18.897858,287,1603,-1212,40,-125,-123,6505.442,6039.931,-4395.294,13050.490
18.917847,308,1585,-1168,84,-143,-120,6535.041,6021.358,-4400.770,13042.436
18.937836,328,1556,-1184,107,-140,-110,6563.168,6001.328,-4403.479,13036.628,194,-300,-475
18.958191,337,1497,-1168,116,-114,-106,6590.027,5981.907,-4403.164,13032.111
18.977814,338,1442,-1168,119,-99,-109,6617.244,5963.457,-4399.954,13027.858
18.997773,338,1417,-1157,123,-83,-123,6646.849,5947.305,-4395.618,13021.633
19.017792,322,1449,-1220,106,-89,-146,6677.996,5933.608,-4390.281,13013.744
19.037781,331,1430,-1237,102,-79,-160,6710.733,5920.730,-4382.605,13005.354,198,-294,-479
19.058136,326,1397,-1228,106,-66,-174,6744.359,5907.959,-4371.586,12997.473
19.077729,307,1373,-1195,117,-62,-179,6779.115,5894.369,-4361.634,12988.902
19.097718,349,1378,-1187,108,-73,-184,6813.544,5884.540,-4353.228,12978.160
19.117707,329,1356,-1227,76,-64,-192,6846.468,5882.693,-4345.338,12964.307
19.137665,308,1392,-1230,20,-48,-207,6879.282,5889.018,-4336.231,12947.103,199,-297,-480
19.158051,286,1429,-1199,-10,-38,-229,6913.246,5898.883,-4329.694,12926.693
19.177643,242,1433,-1264,-31,-50,-239,6947.642,5910.618,-4323.744,12904.865
19.197632,257,1418,-1288,-39,-55,-243,6983.642,5918.252,-4320.547,12882.986
19.217652,219,1426,-1161,-10,-82,-230,7019.999,5914.379,-4320.865,12864.886,199,-297,-480,98511,26180
19.237610,176,1610,-1069,52,-132,-187,7059.592,5901.645,-4328.361,12846.535,192,-302,-482
19.257965,82,1699,-1102,52,-195,-204,7104.435,5890.979,-4337.797,12823.506
19.277558,-57,2019,-1100,53,-209,-223,7150.374,5878.725,-4350.456,12799.285
19.297547,-28,2201,-1216,48,-225,-209,7190.943,5867.454,-4367.445,12775.921
19.317536,146,2246,-1236,38,-231,-152,7217.795,5853.872,-4391.370,12758.797
19.337525,146,2417,-1399,7,-203,-47,7225.739,5850.006,-4404.703,12751.476,182,-292,-487
19.357911,-33,2933,-1785,-11,-27,-10,7225.304,5871.822,-4405.404,12741.449
19.377503,-405,2630,-2776,-185,69,-97,7228.350,5911.990,-4374.562,12731.770
19.397492,184,2129,-1690,23,214,-118,7241.173,5871.228,-4367.327,12745.822
19.417450,313,2045,-1393,300,-175,134,7235.469,5817.369,-4362.960,12775.218
19.437439,289,1627,-1343,276,-6,179,7219.083,5781.345,-4360.299,12801.723,173,-297,-480
19.457825,200,1461,-1331,166,-7,185,7206.288,5754.139,-4372.532,12817.008
19.477417,-110,1512,-1618,47,-87,133,7207.759,5738.989,-4384.922,12818.741
19.497406,-55,1529,-1504,39,-123,5,7234.664,5711.222,-4410.242,12807.293
19.517395,5,1520,-1353,76,-350,-73,7283.016,5673.998,-4442.461,12785.280
19.537354,31,1406,-1348,122,-371,-186,7342.597,5639.247,-4466.433,12758.196,194,-300,-480
19.557770,23,1421,-1266,130,-353,-248,7407.964,5606.391,-4486.251,12727.899
19.577332,34,1434,-1210,119,-361,-286,7475.074,5578.363,-4509.526,12692.704
19.597321,72,1550,-1209,81,-370,-299,7540.137,5553.493,-4536.493,12655.462
19.617310,146,1583,-1142,63,-377,-279,7598.652,5526.232,-4565.920,12621.769
19.637299,166,1494,-1058,81,-366,-217,7645.815,5493.147,-4592.705,12597.990,191,-317,-486
19.657654,226,1428,-1032,127,-315,-133,7681.488,5454.183,-4612.643,12585.928
19.677246,193,1336,-1080,165,-264,-62,7706.064,5416.630,-4626.682,12581.968
19.697266,94,1287,-1176,157,-183,-19,7723.834,5385.319,-4632.894,12582.227
19.717255,50,1304,-1250,147,-135,-17,7744.573,5353.889,-4635.405,12581.968,191,-317,-486,98512,26190
19.737214,33,1323,-1217,168,-141,-47,7772.904,5318.584,-4633.830,12580.050,203,-315,-477
19.757569,58,1349,-1201,210,-162,-78,7805.492,5279.012,-4630.075,12577.924
19.777161,103,1305,-1212,240,-156,-91,7839.076,5235.296,-4622.639,12578.044
19.797150,89,1256,-1177,275,-152,-81,7871.666,5187.346,-4611.737,12581.559
19.817139,90,1237,-1138,307,-137,-65,7901.484,5134.341,-4600.227,12588.821
19.837098,112,1193,-1138,337,-140,-34,7929.906,5077.442,-4586.939,12598.873,213,-302,-482
19.857483,83,1124,-1107,357,-136,-21,7958.949,5013.920,-4570.405,12612.001
19.877076,81,1225,-944,411,-147,-11,7990.305,4941.228,-4550.211,12628.155
19.897065,294,1347,-1088,470,-155,-10,8024.850,4874.152,-4527.782,12640.374
19.917054,320,1407,-1324,406,-95,-78,8055.485,4838.085,-4497.219,12645.653
19.937043,171,1591,-1596,243,13,-135,8085.817,4830.798,-4464.504,12640.672,213,-321,-494
19.957398,127,1809,-1691,119,57,-234,8131.420,4832.998,-4441.305,12618.731
19.976990,168,2209,-1740,83,-47,-342,8195.080,4826.430,-4428.456,12584.532
19.996979,536,2674,-1786,127,-190,-400,8265.997,4807.080,-4433.994,12543.540
20.017060,835,2946,-2072,102,-277,-367,8315.173,4803.117,-4446.847,12507.955
20.036957,700,2603,-2538,-42,-127,-252,8328.610,4822.226,-4452.064,12489.794,224,-334,-481
20.057343,525,2190,-2209,-97,40,-66,8321.869,4820.157,-4461.000,12491.897
20.076935,480,2182,-1798,33,-56,85,8316.689,4797.503,-4466.552,12502.079
20.096924,323,1918,-1818,99,-72,91,8310.988,4785.528,-4460.576,12512.589
20.116913,213,1684,-1737,82,76,39,8311.608,4782.304,-4435.575,12522.294
20.136872,251,1561,-1630,116,118,-39,8321.620,4779.429,-4401.719,12528.687,215,-341,-502
20.157257,199,1321,-1521,137,141,-90,8330.977,4773.882,-4366.164,12537.022
20.176850,198,1156,-1458,162,126,-45,8337.056,4758.629,-4333.903,12549.966
20.196839,145,999,-1358,199,89,-13,8348.147,4730.009,-4307.216,12562.595
20.216828,191,879,-1219,248,-8,-17,8367.728,4689.560,-4290.217,12570.546,215,-341,-502,98513,26180
20.236817,220,845,-1042,249,-99,-37,8390.094,4651.139,-4286.876,12571.053,210,-329,-486
20.257172,225,897,-953,163,-154,-52,8411.531,4629.802,-4296.472,12561.323
20.276795,245,954,-964,26,-154,-97,8435.233,4626.095,-4317.782,12539.469
20.296753,263,1017,-1015,-84,-190,-156,8466.664,4629.801,-4348.244,12506.348
20.316742,309,1117,-1051,-123,-245,-215,8504.330,4633.444,-4386.520,12466.011
20.336762,365,1244,-1127,-148,-286,-235,8538.562,4641.235,-4429.409,12424.478,217,-341,-497
20.357117,367,1355,-1255,-196,-264,-206,8558.707,4659.961,-4471.876,12388.343
20.376679,443,1395,-1251,-252,-183,-129,8559.402,4683.065,-4514.397,12363.704
20.396668,490,1429,-1275,-270,-121,-1,8537.931,4709.229,-4550.654,12355.318
20.416657,508,1487,-1363,-267,-3,122,8495.775,4739.242,-4577.400,12363.019
20.436646,460,1459,-1380,-264,99,231,8436.442,4773.402,-4596.338,12383.464,224,-339,-507
20.457032,395,1437,-1473,-270,187,315,8365.653,4808.612,-4609.004,12413.123
20.476624,297,1421,-1316,-243,223,373,8292.534,4832.748,-4618.073,12449.388
20.496613,276,1594,-1284,-162,190,405,8228.392,4845.489,-4628.455,12483.094
20.516602,71,1542,-1599,-133,133,338,8176.189,4868.155,-4635.667,12505.880
20.536591,60,1559,-1530,-162,175,236,8134.682,4886.325,-4638.491,12524.800,206,-347,-494
20.556946,132,1569,-1402,-105,99,208,8099.865,4895.584,-4643.319,12541.948
20.576569,222,1579,-1400,-94,60,203,8065.805,4913.071,-4654.853,12552.780
20.596527,180,1474,-1570,-185,105,146,8035.110,4953.027,-4662.812,12553.810
20.616516,78,1863,-1447,-268,127,50,8020.337,4999.186,-4671.094,12541.875
20.636505,-87,2646,-2447,-292,69,-90,8035.868,5074.694,-4682.924,12497.118,217,-337,-488
20.656891,-134,2315,-2679,-495,79,-425,8091.941,5132.335,-4658.830,12446.299
20.676484,434,2088,-1650,28,-129,-457,8155.995,5092.921,-4664.787,12418.417
20.696442,434,1750,-1457,212,-235,-192,8176.055,5076.235,-4657.028,12414.970
20.716431,375,1334,-1436,66,37,-37,8169.393,5080.212,-4652.030,12419.602,217,-337,-488,98516,26180
20.736420,215,1288,-1393,-45,49,37,8162.672,5092.167,-4654.992,12418.015,213,-319,-487
20.756775,138,1357,-1418,-117,26,-27,8165.461,5111.574,-4661.652,12405.704
20.776398,224,1521,-1173,-138,-42,-74,8167.840,5131.805,-4678.827,12389.309
20.796387,52,1603,-1272,-198,-24,-47,8156.269,5171.437,-4688.605,12376.750
20.816346,15,1689,-1250,-242,113,-25,8142.096,5210.731,-4687.354,12370.073
20.836335,22,1653,-1115,-163,114,-8,8129.925,5234.229,-4675.383,12372.687,207,-329,-483
20.856720,61,1587,-984,-23,147,25,8113.518,5238.211,-4647.815,12392.143
20.876313,76,1333,-1011,136,218,107,8088.327,5224.062,-4600.219,12432.279
20.896302,57,1020,-963,299,301,194,8056.194,5193.303,-4533.491,12490.406
20.916291,37,700,-1049,405,371,252,8021.100,5154.799,-4462.722,12554.264
20.936280,61,409,-914,432,345,270,7991.169,5105.985,-4400.254,12615.202,213,-323,-482
20.956635,32,305,-653,432,231,264,7969.236,5046.357,-4356.674,12668.085
20.976258,193,675,-34,430,90,248,7955.408,4985.571,-4330.562,12709.730
20.996247,298,1039,-257,341,43,194,7933.019,4983.233,-4299.630,12735.117
21.016205,389,1396,-738,-52,324,56,7897.616,5080.238,-4267.349,12729.651
21.036194,167,1864,-1905,-578,578,-142,7853.700,5266.385,-4205.502,12701.723,211,-319,-487
21.056549,-379,2015,-2450,-834,938,-317,7813.288,5435.817,-4139.538,12676.911
21.076172,128,2569,-1871,-547,576,-185,7814.798,5483.492,-4142.228,12654.549
21.096161,898,3121,-2221,-137,-179,-125,7837.602,5490.829,-4169.202,12628.380
21.116120,854,2492,-2526,-98,-79,-119,7824.339,5505.081,-4170.764,12629.884
21.136109,491,1869,-2377,-77,159,101,7790.712,5511.420,-4158.403,12651.963,210,-329,-497
21.156495,246,1655,-1908,11,155,168,7771.394,5502.316,-4151.480,12670.067
21.176087,78,1610,-1611,67,15,97,7773.440,5477.338,-4152.501,12679.296
21.196076,88,1507,-1323,142,-98,19,7798.999,5435.451,-4155.193,12680.745
21.216065,186,1383,-1236,253,-226,-77,7847.661,5378.972,-4156.493,12674.378,210,-329,-497,98521,26180
21.236084,232,1197,-1209,323,-276,-195,7913.376,5322.055,-4155.485,12657.866,188,-320,-493
21.256409,168,960,-1313,306,-317,-275,7979.118,5260.101,-4160.454,12640.849
21.276001,-34,850,-1042,334,-349,-213,8040.243,5176.328,-4177.080,12631.213
21.295990,-4,1031,-619,390,-505,-110,8097.611,5089.792,-4227.687,12612.882
21.315979,57,1375,-630,193,-644,-80,8140.957,5047.817,-4303.876,12576.026
21.335938,83,1729,-862,-158,-522,-103,8157.588,5070.871,-4384.202,12528.137,190,-314,-492
21.356324,235,2122,-1240,-493,-312,-89,8140.928,5148.156,-4457.239,12481.595
21.375946,197,2388,-1667,-690,-24,-11,8092.678,5249.102,-4492.378,12458.308
21.395935,-93,2666,-2027,-581,292,71,8044.033,5335.592,-4493.835,12452.544
21.415894,-254,2502,-2517,-372,307,48,8028.279,5377.708,-4480.687,12449.332
21.435883,-134,1966,-2214,-39,109,-56,8059.653,5344.721,-4466.955,12448.200,192,-321,-489
21.456238,120,1731,-1759,337,-229,-133,8127.341,5274.031,-4460.331,12436.712
21.475861,91,1675,-1788,388,-341,-280,8211.473,5220.010,-4444.033,12410.045
21.495850,88,1697,-1496,331,-275,-429,8303.081,5174.425,-4430.091,12373.111
21.515808,137,1636,-1390,290,-288,-462,8383.562,5134.885,-4417.745,12339.684
21.535797,230,1601,-985,276,-231,-356,8439.665,5090.551,-4403.499,12324.892,206,-326,-489
21.556153,89,1345,-1015,286,-227,-167,8459.017,5046.082,-4384.903,12336.537
21.575776,112,860,-778,336,49,69,8442.045,4995.540,-4352.763,12380.038
21.595765,134,463,-596,383,112,315,8392.451,4939.265,-4318.264,12448.231
21.615754,74,236,-532,383,205,498,8323.519,4887.185,-4280.493,12527.859
21.635743,-64,144,-229,339,268,567,8248.722,4840.393,-4246.661,12606.763,210,-317,-490
21.656098,-65,532,21,306,252,547,8182.078,4814.409,-4214.027,12670.930
21.675690,-95,1168,-268,137,298,371,8144.321,4863.461,-4178.995,12688.113
21.695679,295,1511,-1182,-297,385,-77,8143.849,4995.303,-4179.424,12636.950
21.715668,192,2229,-2814,-867,314,-509,8163.646,5211.023,-4161.847,12542.511,210,-317,-490,98521,26190
21.735657,-73,2448,-2995,-1063,605,-712,8162.224,5375.418,-4160.947,12474.170,203,-332,-488
21.756012,576,3338,-2493,-656,144,-258,8184.525,5390.556,-4206.558,12437.675
21.775605,949,2814,-1975,-53,-425,-83,8202.440,5361.464,-4264.104,12418.837
21.795594,438,1830,-2323,-38,-208,38,8190.151,5354.009,-4278.185,12425.320
21.815583,270,1599,-1652,26,-46,120,8198.304,5309.258,-4300.655,12431.387
21.835572,196,1548,-1469,147,-358,47,8232.587,5247.663,-4337.964,12421.918,204,-347,-494
21.855957,154,1379,-1130,234,-426,-54,8291.536,5165.498,-4376.126,12403.750
21.875550,291,1435,-1085,330,-605,-155,8370.607,5081.937,-4420.130,12369.508
21.895539,330,1226,-1205,259,-620,-276,8442.257,5016.065,-4463.452,12332.089
21.915528,263,1164,-1077,182,-508,-204,8487.036,4949.420,-4507.607,12312.204
21.935486,123,1227,-785,182,-509,2,8508.334,4884.923,-4568.248,12300.907,188,-320,-488
21.955872,-15,1322,-1011,45,-494,106,8513.839,4858.662,-4644.977,12278.745
21.975464,-45,1594,-1033,-237,-440,59,8516.237,4870.336,-4733.448,12238.605
21.995453,57,1974,-1286,-458,-412,-20,8513.049,4918.348,-4828.819,12184.243
22.015442,309,2365,-1436,-622,-301,-73,8500.203,4985.299,-4906.555,12134.846
22.035431,269,2960,-1770,-580,-140,-44,8474.136,5057.803,-4953.205,12104.083,200,-327,-488
22.055787,-9,2771,-2589,-493,95,-26,8451.734,5122.172,-4957.110,12091.072
22.075379,-21,2042,-2142,-189,160,-17,8454.328,5102.783,-4952.952,12099.158
22.095368,105,1664,-1724,247,-160,63,8486.452,5033.619,-4958.585,12103.333
22.115357,106,1573,-1780,350,-320,-49,8547.945,4972.301,-4968.741,12081.220
22.135346,144,1640,-1652,237,-429,-277,8636.532,4920.450,-4994.309,12028.790,216,-326,-489
22.155701,283,1762,-1542,165,-539,-454,8734.510,4876.305,-5024.770,11963.156
22.175324,385,1779,-1310,142,-557,-461,8814.206,4833.374,-5055.480,11909.064
22.195282,229,1596,-1247,125,-411,-323,8868.249,4801.399,-5063.027,11878.632
22.215271,129,1310,-999,194,-213,-208,8911.565,4757.454,-5046.866,11870.771,216,-326,-489,98527,26180
22.235260,185,934,-704,357,-140,-118,8947.787,4698.080,-5013.471,11881.316,218,-307,-487
22.255616,71,495,-619,469,-58,-37,8974.465,4632.619,-4966.583,11906.566
22.275238,44,302,-482,519,6,19,8996.710,4564.729,-4921.495,11934.687
22.295227,-37,166,-405,484,-26,45,9016.618,4500.361,-4884.379,11959.332
22.315186,-114,226,-134,426,-59,48,9036.917,4437.588,-4859.625,11977.538
22.335175,-52,601,58,356,-127,37,9064.670,4399.192,-4852.117,11973.774,228,-311,-469
22.355561,255,1142,-530,146,-122,-196,9112.004,4432.958,-4860.428,11921.910
22.375183,506,1935,-1987,-365,-96,-518,9162.182,4580.375,-4892.002,11814.328
22.395142,25,2262,-2854,-1003,244,-887,9183.667,4783.160,-4910.215,11709.264
22.415131,24,2634,-2466,-959,296,-551,9188.866,4866.388,-4953.882,11652.360
22.435120,906,3222,-1681,-351,-246,-144,9211.605,4839.918,-5024.066,11615.323,221,-323,-485
22.455536,1004,2633,-1881,-59,-487,19,9197.125,4820.780,-5069.576,11614.982
22.475098,745,1933,-2303,-90,-28,234,9139.658,4817.232,-5096.666,11649.908
22.495057,460,1710,-1967,-111,70,434,9082.265,4805.415,-5120.167,11689.302
22.515046,251,1780,-1935,-107,10,354,9049.727,4798.814,-5135.244,11710.615
22.535035,348,1642,-1540,-6,-18,174,9048.728,4759.103,-5151.320,11720.529,227,-329,-488
22.555390,497,1615,-1315,183,-268,116,9068.275,4692.127,-5171.103,11723.713
22.575013,369,1567,-1406,274,-313,50,9092.202,4634.405,-5179.051,11724.633
22.595002,318,1517,-1474,219,-226,15,9103.637,4591.389,-5188.082,11728.690
22.614991,228,1489,-1216,138,-177,96,9099.077,4541.847,-5200.963,11745.801
22.634980,257,1469,-997,214,-176,227,9088.526,4479.530,-5222.847,11768.169,230,-304,-485
22.655304,63,1647,-1102,182,-216,271,9076.486,4442.362,-5246.640,11780.961
22.674927,-14,1738,-1721,13,-178,147,9071.101,4438.542,-5275.210,11773.787
22.694916,22,1902,-1847,-143,-124,17,9071.497,4446.869,-5308.306,11755.450
22.714905,-11,2335,-2081,-198,-193,-31,9082.822,4466.062,-5346.763,11721.953,230,-304,-485,98531,26180
22.734894,-12,3006,-2509,-260,-171,-191,9117.035,4503.777,-5381.947,11664.722,239,-320,-472
22.755249,39,2662,-2603,-297,-222,-386,9168.337,4526.336,-5412.610,11601.420
22.774842,180,2249,-1871,-102,-358,-351,9228.890,4500.698,-5443.788,11548.676
22.794831,128,1944,-1871,48,-411,-291,9284.093,4479.932,-5477.596,11496.399
22.814881,128,1677,-1647,-39,-406,-298,9339.129,4464.526,-5525.056,11434.940
22.834809,178,1560,-1545,-132,-499,-307,9388.256,4454.049,-5591.705,11366.194,237,-326,-485
22.855164,147,1457,-1331,-226,-518,-275,9427.127,4444.880,-5665.256,11301.001
22.874756,178,1296,-1167,-250,-525,-200,9452.901,4437.063,-5745.487,11241.884
22.894776,125,1183,-1105,-298,-478,-133,9466.800,4439.394,-5823.212,11189.151
22.914826,108,1095,-960,-345,-403,-100,9474.625,4447.616,-5897.674,11140.155
22.934723,24,1218,-796,-341,-364,-90,9483.532,4458.128,-5964.982,11092.435
22.955078,6,1363,-802,-312,-339,-114,9494.686,4470.344,-6025.225,11045.317,248,-325,-479
22.974701,0,1505,-879,-281,-298,-131,9507.982,4482.645,-6076.889,11000.501
22.994690,28,1629,-981,-233,-278,-128,9523.707,4485.960,-6118.816,10962.239
23.014679,15,1717,-1099,-128,-253,-116,9544.059,4474.994,-6143.425,10935.224
23.034638,21,1719,-1123,32,-223,-78,9572.268,4438.604,-6150.228,10921.566
23.055024,-18,1744,-1056,236,-231,-39,9610.116,4372.837,-6138.818,10921.277,264,-314,-457
23.074616,344,2483,-753,457,-256,6,9661.873,4284.719,-6115.676,10923.522
23.094605,845,2155,-2402,541,-303,-77,9702.057,4255.397,-6098.689,10908.855
23.114594,670,1634,-1910,102,71,-202,9721.490,4239.238,-6081.288,10907.560
23.134552,567,1967,-1240,179,-213,-12,9758.106,4175.928,-6088.680,10895.154
23.154938,654,2441,-1083,275,-303,-99,9803.225,4131.969,-6104.254,10862.648,255,-296,-456
23.174561,345,2360,-1203,86,-359,-186,9834.768,4130.182,-6118.631,10826.667
23.194550,20,2159,-1345,-29,-60,-237,9864.204,4155.427,-6104.229,10798.320
23.214508,-91,2025,-1313,17,63,-303,9911.855,4169.154,-6077.094,10764.648,255,-296,-456,98531,26170
23.234497,-18,1871,-1333,147,-76,-370,9983.679,4150.776,-6055.255,10717.580
23.254883,86,1694,-1384,279,-260,-439,10081.955,4105.767,-6035.391,10653.936,261,-297,-464
23.274475,103,1550,-1366,395,-439,-562,10208.420,4042.153,-6011.951,10570.763
23.294434,24,1419,-1388,488,-543,-701,10353.889,3967.540,-5992.118,10468.312
23.314453,43,1372,-1324,500,-672,-806,10514.879,3880.163,-5988.504,10341.900
23.334443,169,1378,-1265,471,-886,-896,10685.297,3779.943,-6012.322,10189.400
23.354767,274,1388,-1183,381,-1063,-952,10854.050,3677.968,-6058.559,10019.552,268,-314,-455
23.374390,320,1434,-1181,287,-1151,-961,11014.891,3577.129,-6116.141,9844.011
23.394379,299,1424,-1079,220,-1158,-929,11164.328,3482.233,-6178.947,9668.912
23.414368,301,1478,-1009,168,-1135,-899,11305.905,3390.977,-6243.738,9493.628
23.434327,346,1555,-971,141,-1121,-882,11443.836,3301.956,-6304.995,9317.627
23.454712,358,1568,-944,163,-1093,-891,11581.797,3211.081,-6358.794,9140.684,271,-307,-459
23.474335,349,1630,-1073,202,-1074,-901,11717.482,3123.417,-6402.375,8966.042
23.494294,317,1682,-1092,232,-997,-895,11848.591,3037.936,-6434.294,8798.700
23.514283,409,1708,-1171,266,-954,-851,11970.329,2951.741,-6461.053,8642.261
23.534272,441,1675,-1275,275,-899,-763,12079.551,2863.064,-6481.651,8503.584
23.554627,361,1784,-1285,302,-836,-650,12179.042,2773.417,-6502.280,8374.656,276,-302,-462
23.574250,37,1675,-1827,242,-828,-624,12274.139,2705.904,-6527.818,8236.905
23.594208,-264,1667,-1869,140,-743,-723,12375.965,2637.581,-6552.878,8085.411
23.614197,-458,1636,-1827,180,-890,-765,12490.551,2541.782,-6578.715,7917.160
23.634186,-373,1751,-1261,308,-1067,-802,12622.622,2408.433,-6598.821,7730.449
23.654541,-250,1860,-1144,455,-1261,-855,12761.087,2270.191,-6619.610,7524.433,296,-282,-460
23.674225,-72,1810,-1279,405,-1281,-970,12894.198,2148.316,-6654.766,7298.897
23.694153,18,1836,-1358,246,-1256,-1058,13012.762,2045.187,-6699.921,7073.311
23.714142,177,1910,-1443,133,-1183,-998,13108.654,1946.128,-6756.448,6867.432,296,-282,-460,98527,26180
23.734131,216,1797,-1363,33,-1113,-821,13180.314,1850.972,-6817.536,6694.016
23.754517,222,1657,-1297,-4,-1008,-624,13235.908,1757.697,-6873.021,6551.203,309,-292,-441
23.774109,228,1475,-1181,13,-893,-474,13279.899,1664.295,-6921.426,6434.569
23.794098,95,1274,-1094,24,-838,-330,13314.085,1573.707,-6965.678,6338.245
23.814087,9,1193,-1022,20,-752,-253,13344.502,1493.944,-7008.332,6245.887
23.834076,-75,1195,-1079,-18,-691,-298,13377.265,1429.430,-7048.772,6144.570
23.854432,-127,1260,-1078,-15,-652,-395,13418.249,1371.089,-7080.324,6031.181,310,-291,-428
23.874024,-81,1335,-966,38,-659,-474,13465.831,1312.747,-7103.370,5909.792
23.894013,-64,1431,-943,94,-644,-513,13516.523,1256.804,-7115.852,5790.003
23.914002,-27,1439,-1019,154,-601,-505,13568.532,1198.824,-7116.419,5678.889
23.933991,31,1372,-1058,229,-574,-451,13620.427,1135.933,-7104.225,5582.029
23.954346,117,1289,-1044,296,-526,-373,13669.559,1070.960,-7083.781,5500.153,326,-276,-429
23.973969,78,1265,-1142,316,-480,-299,13714.198,1010.834,-7059.675,5430.966
23.993927,36,1253,-1233,309,-411,-261,13757.646,954.996,-7033.084,5365.289
24.013947,19,1226,-1360,319,-402,-273,13805.895,898.156,-7001.264,5292.288
24.033905,59,1157,-1309,366,-433,-322,13861.972,834.713,-6960.763,5208.858
24.054291,101,1052,-1212,437,-486,-371,13922.628,766.819,-6914.614,5118.199,323,-276,-413
24.073883,149,935,-1166,464,-498,-400,13982.862,701.426,-6866.581,5027.234
24.093872,147,805,-1022,458,-450,-397,14038.917,639.691,-6817.189,4945.803
24.113861,218,738,-636,443,-422,-326,14085.560,576.575,-6773.358,4880.739
24.133850,401,774,-399,395,-386,-223,14121.647,529.614,-6741.976,4824.912
24.154206,475,1111,-631,256,-215,-268,14143.605,533.702,-6737.605,4765.892,314,-271,-397
24.173798,276,1729,-1225,-73,-87,-403,14146.827,586.970,-6788.925,4676.397
24.193818,172,2442,-2527,-512,-5,-682,14131.785,693.145,-6894.455,4551.277
24.213776,-101,2382,-2965,-818,116,-845,14120.650,774.720,-6980.828,4439.653,314,-271,-397,98532,26180
24.233765,544,2899,-2056,-460,-244,-599,14139.509,720.795,-7031.840,4306.204
24.254120,796,2634,-1934,-72,-858,-510,14159.107,650.124,-7074.721,4181.003,326,-278,-409
24.273743,532,2200,-1822,-91,-586,-435,14172.392,613.634,-7103.291,4092.119
24.293702,281,2044,-1889,-72,-397,-336,14181.233,583.444,-7133.492,4012.599
24.313691,169,1664,-1947,-143,-391,-340,14191.074,564.283,-7165.816,3921.929
24.333680,200,1559,-1540,-115,-397,-435,14211.619,525.519,-7187.569,3811.561
24.354035,342,1648,-1157,-3,-576,-493,14237.482,466.521,-7207.432,3683.046,334,-272,-405
24.373658,298,1620,-1256,16,-660,-534,14262.115,410.250,-7225.491,3556.894
24.393647,272,1524,-1166,45,-608,-495,14291.106,342.737,-7227.112,3442.543
24.413636,264,1463,-985,189,-651,-410,14325.478,259.324,-7215.426,3329.636
24.433625,325,1503,-1039,247,-714,-392,14357.335,173.841,-7205.996,3216.484
24.453980,447,1454,-1073,202,-686,-382,14379.862,91.163,-7207.458,3114.362,325,-251,-384
24.473572,421,1391,-1006,109,-657,-290,14392.567,5.179,-7213.887,3041.262
24.493561,430,1364,-775,94,-593,-97,14396.010,-84.936,-7223.905,2999.720
24.513550,258,1567,-720,31,-525,57,14388.919,-153.909,-7244.588,2981.055
24.533539,43,1648,-990,-74,-336,80,14375.872,-184.799,-7273.192,2972.587
24.553894,-56,1690,-1218,-151,-134,39,14362.641,-194.409,-7300.026,2970.150,319,-242,-381
24.573487,40,1766,-1220,-152,-99,39,14351.512,-207.979,-7323.164,2966.065
24.593476,119,1980,-1336,-117,-119,31,14343.271,-213.875,-7342.257,2958.299
24.613465,181,2556,-1414,-93,-39,-32,14337.359,-204.382,-7359.958,2943.609
24.633484,-234,2932,-2808,-139,-1,-125,14335.352,-144.783,-7376.332,2915.795
24.653809,-81,2235,-2533,-51,288,-345,14368.102,-128.278,-7328.889,2874.719,320,-241,-375
24.673432,261,1807,-1753,474,-229,-167,14418.737,-191.858,-7246.622,2825.791
24.693390,184,1403,-1635,589,-368,-115,14463.748,-249.853,-7174.648,2774.426
24.713379,198,1335,-1531,490,-376,-187,14501.393,-311.034,-7128.262,2690.011,320,-241,-375,98532,26170
24.733368,271,1424,-1610,309,-535,-379,14530.781,-368.514,-7108.071,2575.145
24.753724,263,1405,-1455,195,-590,-486,14555.237,-432.116,-7095.722,2458.557,317,-258,-371
24.773346,183,1407,-1366,176,-591,-428,14575.664,-489.656,-7085.100,2355.219
24.793335,132,1371,-1331,145,-510,-382,14593.187,-534.950,-7076.615,2260.458
24.813324,109,1311,-1289,127,-433,-381,14610.766,-567.849,-7065.897,2170.621
24.833313,116,1272,-1143,140,-358,-382,14630.414,-592.394,-7048.642,2086.178
24.853669,78,1204,-1083,183,-307,-370,14652.961,-612.337,-7022.917,2007.446,334,-234,-371
24.873261,71,1157,-971,235,-262,-351,14679.674,-631.573,-6985.869,1934.255
24.893311,93,1067,-927,312,-246,-319,14711.645,-649.899,-6934.691,1868.317
24.913239,116,995,-1014,394,-205,-289,14747.760,-663.006,-6872.392,1808.219
24.933228,26,982,-1191,443,-145,-283,14786.638,-670.651,-6803.311,1748.126
24.953614,-21,1024,-1498,468,-145,-313,14827.582,-679.764,-6731.537,1674.088,319,-247,-365
24.973206,-11,1023,-1492,484,-207,-396,14872.590,-705.667,-6651.674,1580.744
24.993164,170,957,-1291,581,-382,-429,14924.091,-760.959,-6553.133,1477.949
25.013153,236,1288,-920,725,-486,-384,14978.302,-825.630,-6441.206,1383.871
25.033142,469,1412,-1199,756,-487,-323,15017.528,-880.566,-6360.625,1294.740
25.053528,501,1612,-1679,428,-341,-354,15033.150,-894.543,-6335.542,1224.966,317,-241,-368
25.073120,162,1894,-2137,89,-111,-325,15035.036,-868.369,-6343.765,1177.166
25.093079,76,2301,-2407,-107,72,-323,15030.560,-837.894,-6367.847,1125.229
25.113099,191,2478,-2342,-140,-37,-343,15028.195,-838.882,-6384.623,1059.080
25.133057,546,2748,-2331,-40,-252,-335,15026.272,-870.244,-6397.321,981.603
25.153443,701,2884,-2628,-47,-389,-331,15017.531,-912.527,-6422.673,908.715,314,-237,-379
25.173035,532,2643,-2756,-139,-379,-272,15006.029,-953.649,-6451.508,850.363
25.193024,354,2187,-2343,-138,-359,-201,14998.387,-1006.885,-6469.260,786.552
25.213013,237,1721,-1984,-45,-482,-253,14995.925,-1067.132,-6475.758,695.306,314,-237,-379,98534,26180
25.232972,140,1389,-1903,1,-550,-397,14993.587,-1126.645,-6482.624,577.953
25.253357,172,1277,-1612,9,-629,-529,14991.227,-1195.053,-6487.444,428.333,313,-246,-373
25.272980,253,1244,-1500,28,-745,-688,14985.606,-1266.752,-6496.035,252.795
25.292939,265,1164,-1338,3,-800,-788,14975.891,-1339.793,-6508.301,71.428
25.312928,336,1050,-1105,-18,-802,-782,14962.302,-1417.395,-6522.708,-101.140
25.332917,359,1031,-992,-38,-806,-705,14945.219,-1498.987,-6539.293,-257.946
25.353272,314,1014,-932,-66,-779,-616,14924.922,-1580.592,-6559.016,-403.938,309,-237,-379
25.372864,275,1138,-905,-93,-759,-587,14902.178,-1657.829,-6580.882,-551.473
25.392853,264,1250,-951,-97,-752,-632,14878.633,-1728.103,-6601.239,-706.413
25.412842,313,1479,-953,-76,-728,-666,14855.803,-1791.529,-6617.579,-859.438
25.432831,419,1701,-1029,-43,-677,-660,14833.241,-1849.141,-6632.467,-1000.720
25.453186,476,1889,-1097,-46,-596,-587,14813.937,-1899.358,-6642.887,-1116.772,316,-225,-374
25.472809,502,2169,-1266,-4,-498,-450,14796.251,-1944.107,-6652.778,-1211.351
25.492798,69,2242,-2170,-73,-396,-394,14776.022,-1956.950,-6680.200,-1284.482
25.512757,-234,2042,-2339,-149,-185,-352,14764.086,-1972.288,-6689.847,-1346.566
25.532776,-42,1625,-1730,20,-312,-227,14762.812,-2037.764,-6659.024,-1414.114
25.553131,-131,1432,-1507,215,-618,-150,14765.669,-2107.261,-6611.813,-1501.272,303,-217,-343
25.572724,-223,1379,-1327,282,-581,-312,14760.202,-2175.186,-6572.219,-1626.771
25.592713,-148,1609,-1303,212,-744,-545,14734.215,-2254.794,-6558.985,-1798.324
25.612702,38,1815,-1340,15,-883,-766,14691.096,-2334.051,-6573.277,-1987.808
25.632691,237,1990,-1282,-109,-874,-824,14642.427,-2412.941,-6599.292,-2159.124
25.653046,366,1996,-1223,-179,-782,-683,14594.510,-2485.979,-6636.045,-2284.408,298,-205,-338
25.672638,341,1820,-1208,-271,-599,-443,14553.925,-2546.468,-6678.789,-2351.165
25.692627,370,1631,-1251,-296,-393,-166,14522.677,-2598.613,-6720.698,-2367.849
25.712616,224,1380,-1134,-300,-234,37,14502.751,-2638.797,-6751.397,-2358.183,298,-205,-338,98536,26180
25.732605,69,1271,-1060,-203,-143,118,14489.120,-2667.522,-6773.170,-2347.199
25.752961,-21,1324,-1064,-178,-112,68,14471.644,-2688.063,-6799.551,-2355.286,289,-207,-341
25.772553,-53,1375,-1143,-204,-141,-87,14447.659,-2700.790,-6832.860,-2391.304
25.792542,-18,1508,-1262,-205,-162,-256,14420.896,-2706.026,-6865.581,-2452.428
25.812500,-17,1617,-1277,-156,-194,-380,14396.610,-2705.224,-6888.998,-2529.133
25.832520,3,1689,-1286,-72,-194,-437,14378.879,-2701.501,-6896.908,-2611.095
25.852845,-49,1779,-1250,37,-195,-428,14370.066,-2694.900,-6887.924,-2688.990,295,-194,-323
25.872467,-46,1764,-1249,143,-173,-375,14369.453,-2688.598,-6863.400,-2760.329
25.892456,8,1751,-1296,223,-176,-320,14372.756,-2684.201,-6830.573,-2828.013
25.912445,19,1732,-1306,256,-174,-295,14379.249,-2679.150,-6791.929,-2892.140
25.932404,12,1756,-1367,290,-172,-275,14388.825,-2675.798,-6745.170,-2956.339
25.952790,31,1717,-1393,340,-193,-266,14402.767,-2672.262,-6688.387,-3019.970,279,-193,-322
25.972382,22,1828,-1327,404,-185,-234,14423.675,-2671.705,-6618.689,-3073.755
25.992371,132,2046,-1289,473,-176,-145,14445.519,-2671.929,-6551.216,-3115.250
26.012360,379,2080,-1790,388,-139,-101,14457.042,-2666.632,-6515.802,-3140.506
26.032349,374,1723,-1834,152,0,-74,14468.801,-2645.297,-6501.063,-3134.935
26.052704,266,1575,-1286,128,143,69,14491.539,-2624.006,-6474.730,-3102.126,279,-184,-304
26.072327,281,1581,-957,191,197,211,14517.624,-2608.736,-6447.391,-3049.538
26.092286,277,1656,-839,146,210,323,14539.890,-2594.432,-6435.927,-2979.057
26.112366,180,1701,-1029,36,256,373,14555.879,-2570.049,-6443.105,-2905.695
26.132264,139,1715,-1286,-54,342,286,14563.179,-2534.549,-6467.076,-2846.444
26.152649,-63,1847,-1753,-140,334,167,14566.709,-2491.893,-6491.954,-2809.165,278,-197,-307
26.172242,-51,1791,-1652,-58,282,34,14575.262,-2462.402,-6484.924,-2807.047
26.192231,59,1621,-1546,158,59,-64,14589.903,-2446.457,-6446.104,-2834.210
26.212189,126,1424,-1448,319,-48,-153,14607.756,-2433.513,-6389.356,-2881.500,278,-197,-307,98535,26180
26.232209,158,1316,-1384,397,-113,-224,14623.978,-2425.500,-6327.304,-2942.257
26.252564,147,1277,-1328,393,-171,-282,14631.813,-2422.680,-6277.240,-3012.034,277,-198,-324
26.272156,188,1282,-1379,282,-194,-330,14629.566,-2426.899,-6244.487,-3086.710
26.292145,218,1363,-1356,176,-241,-354,14620.742,-2440.679,-6221.719,-3162.696
26.312134,332,1470,-1248,117,-286,-341,14607.781,-2463.757,-6207.423,-3232.023
26.332123,353,1557,-1162,48,-291,-283,14592.618,-2489.261,-6205.454,-3284.334
26.352478,347,1579,-1223,-32,-228,-200,14577.755,-2508.544,-6214.867,-3317.698,274,-203,-324
26.372071,282,1518,-1310,-77,-136,-137,14565.820,-2517.170,-6227.696,-3339.457
26.392060,224,1423,-1368,-75,-62,-114,14557.640,-2519.004,-6235.793,-3358.577
26.412049,200,1322,-1378,-22,-47,-115,14553.398,-2517.930,-6232.577,-3383.643
26.432038,191,1227,-1276,56,-66,-147,14551.691,-2516.122,-6217.972,-3419.017
26.452393,121,1212,-1243,116,-101,-191,14549.728,-2512.113,-6198.608,-3465.167,272,-193,-341
26.472016,107,1198,-1235,137,-107,-254,14544.740,-2505.252,-6181.445,-3521.281
26.492005,128,1233,-1264,119,-118,-309,14536.229,-2497.124,-6169.963,-3581.816
26.511994,213,1270,-1280,84,-116,-326,14524.502,-2493.073,-6166.074,-3638.462
26.531952,264,1380,-1267,17,-108,-290,14510.384,-2493.186,-6174.228,-3680.641
26.552338,273,1411,-1325,-72,-86,-210,14495.356,-2498.713,-6192.871,-3704.710,270,-191,-341
26.571930,240,1394,-1340,-133,-51,-111,14482.635,-2509.315,-6214.803,-3710.563
26.591919,187,1336,-1287,-157,-45,-13,14472.224,-2523.290,-6236.744,-3704.889
26.611908,229,1323,-1264,-161,-33,39,14462.710,-2538.959,-6257.590,-3696.175
26.631897,272,1354,-1290,-159,-46,46,14453.098,-2553.167,-6279.902,-3686.131
26.652253,260,1364,-1256,-168,-11,51,14446.155,-2558.904,-6303.761,-3668.602,267,-191,-324
26.671845,271,1383,-1308,-159,55,78,14443.117,-2555.279,-6327.151,-3642.735
26.691834,191,1363,-1345,-137,130,101,14445.291,-2541.362,-6346.056,-3610.825
26.711823,170,1358,-1340,-84,175,118,14452.267,-2525.739,-6355.199,-3577.637,267,-191,-324,98538,26180
26.731812,170,1297,-1387,-25,159,140,14463.146,-2512.527,-6354.232,-3544.540
26.752167,185,1176,-1355,32,136,160,14477.996,-2506.400,-6341.412,-3511.059,255,-188,-348
26.771790,126,1094,-1150,89,77,202,14497.678,-2510.448,-6314.197,-3475.818
26.791779,115,1259,-950,160,9,253,14514.967,-2530.782,-6283.623,-3444.181
26.811737,-153,1267,-1211,106,-79,234,14525.410,-2539.242,-6267.907,-3422.496
26.831726,-22,1551,-1083,62,-19,113,14525.955,-2556.455,-6262.016,-3418.151
26.852112,111,1863,-1375,-41,-97,51,14510.631,-2575.500,-6290.340,-3416.935,258,-188,-334
26.871704,130,2159,-1955,-290,-61,-16,14481.986,-2582.926,-6355.333,-3412.585
26.891693,106,2318,-2159,-442,78,-60,14459.190,-2576.812,-6414.668,-3402.840
26.911682,121,2940,-2378,-280,63,-20,14437.268,-2587.287,-6457.329,-3407.281
26.931672,30,2529,-3017,-304,-49,-108,14426.824,-2566.360,-6479.287,-3425.610
26.952027,444,1903,-1758,80,8,-116,14442.293,-2589.844,-6432.988,-3430.011,249,-187,-333
26.971619,485,1422,-1439,250,-139,200,14463.690,-2603.671,-6399.551,-3391.716
26.991608,393,1106,-1198,82,44,308,14475.383,-2625.888,-6392.029,-3338.471
27.011597,200,1178,-1239,-89,-12,327,14470.364,-2650.181,-6416.251,-3294.279
27.031556,85,1423,-1359,-256,22,180,14458.264,-2660.471,-6450.657,-3271.842
27.051941,133,1589,-1162,-231,-18,65,14444.222,-2679.067,-6483.177,-3254.367,270,-198,-327
27.071564,111,1672,-1041,-243,2,109,14435.166,-2684.934,-6520.085,-3215.749
27.091523,163,1598,-1034,-239,123,206,14435.943,-2679.617,-6550.065,-3155.198
27.111512,123,1277,-1002,-147,240,307,14451.884,-2658.541,-6560.147,-3078.164
27.131501,70,1150,-925,1,344,373,14480.904,-2625.720,-6548.217,-2994.212
27.151856,23,1028,-956,125,394,392,14515.339,-2579.809,-6526.930,-2912.755,265,-186,-324
27.171479,-1,975,-1095,175,439,340,14548.811,-2528.769,-6502.878,-2843.491
27.191437,4,862,-1102,196,410,263,14581.835,-2479.443,-6469.831,-2792.698
27.211457,34,653,-1033,267,316,184,14616.290,-2440.097,-6419.775,-2762.593,265,-186,-324,98540,26180
27.231415,39,632,-646,376,196,123,14652.649,-2413.420,-6351.522,-2751.160
27.251801,219,830,-523,464,83,64,14678.343,-2390.828,-6296.549,-2760.268,265,-193,-318
27.271393,514,1298,-820,290,106,-93,14677.370,-2353.739,-6300.600,-2787.935
27.291382,358,1697,-1521,-121,168,-310,14644.205,-2300.646,-6380.150,-2825.493
27.311371,251,2406,-2416,-540,290,-486,14589.154,-2229.671,-6509.986,-2870.657
27.331391,359,2592,-2573,-712,354,-547,14548.181,-2185.270,-6602.040,-2902.330
27.351715,886,3210,-1964,-314,102,-234,14530.414,-2206.693,-6621.032,-2931.716,270,-184,-320
27.371308,975,2865,-2292,-97,-221,-85,14520.093,-2223.538,-6641.253,-2924.373
27.391297,742,2131,-2051,-144,85,115,14526.881,-2216.259,-6652.455,-2870.225
27.411286,404,1623,-1706,-32,226,298,14545.055,-2206.372,-6646.697,-2798.241
27.431275,203,1346,-1718,30,244,358,14561.897,-2186.307,-6642.688,-2735.207
27.451630,172,1090,-1458,3,236,241,14570.336,-2168.335,-6644.433,-2700.106,278,-199,-337
27.471253,168,1243,-1343,-42,145,82,14568.551,-2147.857,-6658.160,-2692.280
27.491242,137,1390,-1307,-95,116,-74,14559.812,-2129.606,-6678.294,-2704.158
27.511200,114,1457,-1238,-98,53,-149,14551.082,-2122.350,-6689.668,-2728.630
27.531189,142,1387,-1171,-23,-69,-158,14548.391,-2132.020,-6677.460,-2765.099
27.551575,243,1371,-980,142,-206,-152,14552.651,-2160.775,-6638.004,-2814.914,270,-186,-331
27.571167,385,1214,-921,238,-363,-142,14556.593,-2208.608,-6593.584,-2861.420
27.591156,372,966,-907,216,-380,-54,14564.801,-2259.882,-6548.663,-2882.698
27.611145,349,1081,-529,216,-328,107,14573.814,-2320.483,-6507.732,-2881.694
27.631134,195,1302,-599,110,-336,197,14566.881,-2373.476,-6509.417,-2869.758
27.651490,-7,1621,-1188,-191,-155,136,14541.417,-2395.612,-6568.212,-2846.446,265,-191,-329
27.671082,-48,1913,-1497,-487,48,90,14508.081,-2397.946,-6657.786,-2806.199
27.691071,106,2136,-1569,-583,181,128,14480.324,-2386.813,-6743.415,-2754.109
27.711060,217,2495,-1500,-480,255,160,14462.845,-2363.662,-6811.223,-2698.496,265,-191,-329,98545,26170
27.731049,-244,3130,-2571,-370,314,140,14444.206,-2301.663,-6886.315,-2661.079
27.751404,-193,2519,-2616,-340,602,-151,14450.520,-2226.870,-6900.875,-2652.709,272,-186,-331
27.770996,184,2019,-1806,181,112,-28,14478.147,-2232.123,-6840.128,-2654.987
27.790985,146,1669,-1704,403,-76,116,14509.948,-2235.871,-6773.916,-2647.978
27.810974,180,1423,-1350,397,-57,117,14533.543,-2250.847,-6712.534,-2662.167
27.830964,152,1461,-1608,298,-210,-30,14539.819,-2265.595,-6677.349,-2703.550
27.851319,251,1722,-1360,170,-199,-192,14540.885,-2287.348,-6648.537,-2750.109,270,-198,-327
27.870942,217,1759,-1257,148,-246,-120,14545.412,-2302.429,-6627.538,-2764.233
27.890900,225,1573,-1088,114,-45,51,14562.038,-2301.163,-6602.046,-2738.636
27.910889,180,1123,-905,192,102,233,14596.653,-2288.171,-6554.720,-2678.257
27.930878,185,680,-694,347,223,416,14645.577,-2271.243,-6486.532,-2590.147
27.951233,129,313,-521,428,285,557,14699.816,-2252.782,-6412.846,-2480.162,272,-191,-318
27.970887,70,144,-185,403,347,654,14749.982,-2232.046,-6350.278,-2359.113
27.990845,-51,9,-17,326,377,658,14792.601,-2205.144,-6302.903,-2241.681
28.010804,-127,347,190,241,411,580,14827.841,-2162.669,-6269.342,-2142.145
28.030793,106,1012,-52,185,435,397,14842.729,-2094.888,-6274.880,-2089.535
28.051178,779,1634,-1215,-116,549,-57,14803.518,-1979.064,-6403.384,-2090.754,267,-188,-320
28.070771,5,2391,-3011,-982,829,-567,14738.437,-1751.678,-6619.062,-2081.714
28.090760,-570,2440,-3240,-1060,1376,-676,14684.468,-1602.986,-6778.696,-2069.188
28.110749,358,3415,-2705,-753,559,-231,14656.123,-1623.580,-6824.073,-2104.636
28.130707,1215,2831,-1652,-98,-617,-118,14648.564,-1733.459,-6797.369,-2155.431
28.151093,540,1865,-2144,127,-581,67,14657.187,-1804.639,-6762.134,-2149.216,277,-200,-338
28.170685,209,1437,-1609,209,-290,271,14670.749,-1879.710,-6715.063,-2139.898
28.190674,194,1440,-1429,171,-431,207,14679.567,-1966.014,-6661.200,-2170.009
28.210663,332,1481,-1054,307,-657,9,14683.473,-2076.433,-6589.841,-2256.874,277,-200,-338,98547,26180
28.230652,359,1453,-1131,359,-857,-235,14680.829,-2165.213,-6525.109,-2375.602
28.251007,416,1517,-1045,355,-724,-415,14679.919,-2236.932,-6460.458,-2488.778,288,-192,-342
28.270600,336,1593,-851,365,-626,-332,14685.481,-2294.800,-6394.454,-2572.342
28.290619,143,1839,-1026,347,-486,-193,14685.206,-2339.563,-6355.861,-2628.613
28.310608,-41,1921,-1518,129,-335,-145,14673.629,-2365.449,-6355.408,-2670.856
28.330567,14,1978,-1478,-47,-187,-172,14661.579,-2385.509,-6361.156,-2705.284
28.350922,291,2440,-1429,-46,-236,-98,14645.141,-2422.980,-6374.708,-2729.019,273,-192,-330
28.370545,320,2883,-2083,-162,-211,-52,14624.723,-2425.704,-6416.607,-2737.883
28.390534,199,2677,-2497,-234,131,-102,14624.234,-2392.642,-6439.399,-2715.991
28.410523,257,1994,-1625,29,210,137,14648.065,-2397.169,-6401.516,-2672.787
28.430512,74,1984,-2048,256,-12,343,14673.517,-2400.652,-6358.332,-2632.834
28.450867,35,1593,-1957,222,54,219,14686.695,-2415.336,-6323.382,-2630.097,278,-192,-330
28.470459,177,1462,-1840,152,-217,24,14686.945,-2458.190,-6288.979,-2671.162
28.490448,363,1520,-1525,150,-428,-118,14678.578,-2521.519,-6260.586,-2724.294
28.510437,400,1518,-1442,61,-466,-111,14665.513,-2577.379,-6251.681,-2762.566
28.530426,251,1430,-1373,-46,-349,-64,14651.268,-2621.858,-6256.441,-2785.422
28.550843,142,1377,-1288,-102,-257,-31,14637.325,-2656.807,-6266.267,-2803.465,276,-190,-335
28.570404,119,1397,-1141,-95,-226,-43,14624.966,-2688.135,-6271.297,-2826.761
28.590363,144,1465,-1079,-42,-216,-78,14615.287,-2709.959,-6271.649,-2855.058
28.610352,195,1511,-1069,2,-164,-113,14610.123,-2719.078,-6266.757,-2883.416
28.630341,200,1460,-1212,61,-89,-121,14612.501,-2711.498,-6254.040,-2906.032
28.650727,146,1375,-1366,133,8,-111,14621.403,-2692.614,-6230.949,-2928.327,284,-198,-345
28.670319,63,1302,-1469,203,25,-135,14632.497,-2675.341,-6195.069,-2964.648
28.690277,61,1319,-1495,283,-72,-199,14643.213,-2670.529,-6143.601,-3022.614
28.710297,172,1238,-1429,368,-198,-269,14652.707,-2678.051,-6078.933,-3099.714,284,-198,-345,98547,26170
28.730255,225,1074,-1418,426,-303,-317,14661.568,-2692.279,-6007.669,-3183.303
28.750641,235,934,-1272,435,-324,-315,14669.411,-2707.039,-5938.629,-3263.193,273,-194,-333
28.770234,214,757,-1051,396,-310,-300,14673.903,-2723.433,-5879.091,-3336.346
28.790223,228,625,-757,324,-290,-274,14674.921,-2742.468,-5830.689,-3400.597
28.810212,279,569,-432,264,-286,-225,14676.122,-2764.499,-5785.407,-3454.487
28.830201,333,757,159,261,-264,-168,14681.913,-2776.836,-5739.151,-3496.884
28.850556,352,1008,-189,295,-115,-151,14684.223,-2749.677,-5722.053,-3536.441,280,-202,-330
28.870179,553,1380,-1022,95,139,-319,14658.090,-2702.130,-5778.523,-3589.289
28.890168,265,1977,-2464,-446,262,-549,14598.144,-2613.182,-5933.667,-3645.886
28.910126,-340,2242,-3007,-839,564,-740,14541.573,-2522.033,-6081.868,-3691.653
28.930115,336,2786,-2253,-613,337,-524,14501.119,-2530.042,-6131.658,-3762.267
28.950470,1045,2619,-1561,-163,-453,-381,14468.447,-2588.673,-6142.652,-3829.631,276,-202,-346
28.970093,922,1876,-1860,-133,-295,-210,14454.242,-2593.578,-6175.409,-3827.269
28.990082,523,1871,-1889,-209,199,55,14453.062,-2566.998,-6222.495,-3772.998
29.010071,85,1888,-2333,-353,389,161,14439.801,-2514.379,-6307.258,-3718.061
29.030030,174,1770,-1834,-451,437,20,14426.370,-2493.063,-6357.883,-3698.274
29.050415,352,1881,-1409,-181,86,-13,14422.049,-2499.959,-6363.927,-3700.078,268,-197,-351
29.070008,504,1769,-1201,9,-74,9,14428.236,-2510.762,-6350.918,-3690.980
29.089997,429,1369,-1150,95,0,137,14446.548,-2508.094,-6330.556,-3655.983
29.109986,249,1331,-1168,142,146,221,14468.975,-2490.721,-6311.723,-3611.461
29.129975,314,1415,-1195,106,189,223,14484.758,-2479.611,-6307.519,-3562.855
29.150330,441,1398,-1213,-9,158,276,14500.520,-2479.558,-6310.350,-3493.081,253,-188,-322
29.169922,544,1387,-1100,-55,181,428,14520.619,-2485.864,-6317.355,-3390.953
29.189911,480,1319,-980,-110,269,606,14544.772,-2485.724,-6334.662,-3252.426
29.209900,409,1530,-926,-177,409,759,14568.223,-2477.167,-6365.620,-3089.474,253,-188,-322,98552,26170
29.229889,144,1591,-1112,-272,504,822,14588.739,-2453.142,-6414.117,-2906.081
29.250245,32,1559,-1238,-344,653,873,14607.431,-2414.024,-6469.435,-2716.115,251,-186,-324
29.269867,27,1545,-1425,-356,708,837,14622.554,-2366.196,-6524.494,-2539.376
29.289826,142,1563,-1437,-351,688,722,14631.897,-2316.798,-6577.089,-2391.102
29.309815,76,2035,-1335,-322,610,543,14632.669,-2262.462,-6633.445,-2280.151
29.329804,-366,3283,-2965,-376,537,304,14606.107,-2175.666,-6741.004,-2218.649
29.350159,-480,2561,-3345,-625,787,-161,14599.253,-2061.077,-6798.891,-2196.427,258,-203,-336
29.369782,587,2143,-1513,-53,275,-36,14616.848,-2094.230,-6753.869,-2186.925
29.389771,570,1866,-1560,311,-169,233,14645.625,-2083.778,-6708.201,-2144.527
29.409760,471,1389,-1370,218,234,280,14666.466,-2075.863,-6685.857,-2078.537
29.429718,290,1331,-1517,53,190,358,14676.637,-2064.551,-6689.128,-2006.226
29.450104,258,1377,-1336,-81,256,334,14682.305,-2059.436,-6699.984,-1932.430,270,-207,-336
29.469696,222,1388,-1208,-105,174,394,14687.115,-2063.351,-6712.234,-1847.315
29.489685,152,1313,-1261,-133,225,454,14688.889,-2051.258,-6737.221,-1753.331
29.509674,97,1189,-1329,-216,341,420,14688.347,-2018.054,-6771.417,-1662.309
29.529663,118,1105,-1317,-233,417,335,14686.869,-1977.030,-6806.132,-1580.900
29.550049,94,1098,-1254,-225,417,282,14685.440,-1930.140,-6840.028,-1503.951,262,-193,-336
29.569641,70,1111,-1150,-217,438,257,14683.270,-1883.508,-6873.805,-1428.362
29.589600,31,1067,-1050,-210,426,254,14682.619,-1838.871,-6902.155,-1354.598
29.609589,74,988,-1013,-156,397,257,14686.601,-1801.517,-6916.333,-1287.650
29.629578,110,912,-1049,-58,333,243,14695.699,-1771.816,-6915.027,-1230.828
29.649933,130,916,-1103,24,265,212,14705.468,-1748.970,-6907.760,-1186.844,268,-209,-339
29.669526,43,926,-1213,26,203,155,14712.179,-1730.055,-6903.331,-1156.780
29.689545,-24,1027,-1207,10,136,89,14717.128,-1722.295,-6896.468,-1146.304
29.709504,15,1154,-966,51,11,17,14724.550,-1726.017,-6878.399,-1153.926,268,-209,-339,98552,26170
29.729493,128,1263,-719,138,-69,-19,14737.936,-1733.356,-6846.521,-1161.591
29.749939,370,1853,-110,243,-53,45,14760.402,-1744.075,-6797.019,-1150.958,265,-215,-338
29.769532,1026,1765,-1100,356,-43,137,14777.411,-1727.811,-6768.368,-1125.792
29.789460,698,2214,-1634,52,387,96,14786.507,-1636.267,-6783.304,-1050.742
29.809449,334,3032,-2402,-141,805,180,14783.234,-1520.534,-6831.405,-954.625
29.829438,433,4080,-3414,-292,795,190,14769.678,-1432.414,-6890.899,-869.343
