;Title, http://www.gcdataconcepts.com, HAM-IMU, MPU-9250
;Version, 1191, Build date, Nov 15 2016,  SN:CCDC3016FE411C6
;Start_time, 2007-01-06, 22:26:31.941
;Temperature, -999.00, deg C,  Vbat, 4114, mv
;MPU SR, 200,Hz,  Accel sens, 2048,counts/g, Gyro sens, 16,counts/dps,  Mag SR, 10,Hz,  Mag sens, 1666,counts/mT
;Deadband, 0, counts
;DeadbandTimeout, 5,sec
;Time, Ax, Ay, Az, Gx, Gy, Gz, Qw, Qx, Qy, Qz, Mx, My, Mz, T
0.001587,761,1943,-828,26,136,-20,12437.062,-806.149,-9552.106,4675.716
0.004608,741,1898,-788,134,142,-46,12457.159,-786.687,-9525.201,4680.415
0.024597,725,1870,-790,149,148,-76,12479.067,-763.364,-9496.582,4684.073
0.044678,715,1809,-755,163,169,-95,12502.667,-741.210,-9466.398,4685.794
0.064636,742,1788,-718,175,145,-91,12524.793,-724.272,-9438.149,4686.338,-150,-86,-92
0.084656,728,1825,-637,156,113,-69,12543.504,-712.516,-9412.568,4689.543
0.104645,666,1750,-720,152,102,-36,12557.561,-703.020,-9391.535,4695.521
0.124664,721,1738,-669,120,101,-9,12567.684,-694.885,-9375.385,4701.918
0.144684,688,1709,-646,69,64,-8,12572.247,-686.541,-9368.142,4705.381
0.164673,700,1745,-760,43,38,-9,12573.490,-676.281,-9367.235,4705.353,-156,-87,-102
0.184693,700,1809,-767,-9,54,-53,12570.405,-659.926,-9371.691,4707.043
0.204682,737,1821,-999,-72,70,-30,12564.233,-635.904,-9379.694,4710.888
0.224701,625,1737,-947,-141,112,-90,12559.629,-616.325,-9388.020,4709.179
0.244690,687,1726,-577,-219,137,-133,12549.999,-582.536,-9404.242,4706.785
0.264710,920,1995,-1195,-139,119,-83,12537.998,-543.590,-9418.596,4714.721,-159,-87,-104
0.284729,760,1868,-1228,-179,259,-89,12521.503,-480.817,-9447.865,4706.808
0.304718,663,1787,-1043,-242,30,-270,12518.763,-454.962,-9458.292,4695.714
0.324738,672,1792,-932,-153,81,-71,12512.319,-418.265,-9471.374,4689.929,-159,-87,-104,25525
0.344727,606,1801,-1092,-149,120,-168,12511.903,-383.606,-9482.969,4670.530
0.364746,591,1742,-1073,-96,14,-232,12518.047,-361.956,-9490.769,4639.851,-156,-99,-109
0.384735,616,1721,-976,-50,-45,-167,12525.367,-364.083,-9492.818,4615.674
0.404755,606,1786,-976,23,-115,-85,12527.814,-372.966,-9499.888,4593.727
0.424744,552,1808,-964,-2,-165,-61,12531.944,-387.004,-9508.839,4562.676
0.444763,545,1844,-968,-17,-201,-103,12536.426,-398.541,-9521.252,4523.315
0.464783,656,1827,-872,-44,-198,-162,12540.561,-406.697,-9536.995,4477.731,-164,-100,-99
0.484772,630,1839,-745,-56,-225,-186,12545.670,-415.408,-9553.937,4426.209
0.504791,625,1859,-905,-39,-259,-215,12548.313,-425.645,-9574.704,4372.543
0.524780,707,1858,-863,-45,-283,-225,12559.400,-440.218,-9592.632,4299.364
0.544861,737,1829,-762,-11,-361,-334,12572.672,-437.170,-9611.315,4218.394
0.564819,691,1955,-684,24,-302,-404,12586.663,-437.058,-9627.165,4139.810,-170,-99,-91
0.584808,743,1768,-810,-74,-226,-347,12597.267,-434.700,-9645.498,4064.444
0.604828,764,1863,-783,45,-314,-350,12605.563,-446.233,-9658.915,4005.177
0.624817,767,1889,-740,-58,-220,-200,12603.495,-455.349,-9678.117,3964.096
0.644867,712,1912,-758,-75,-223,-118,12595.211,-468.864,-9701.190,3932.323
0.664856,738,1884,-749,-118,-207,-49,12584.642,-486.354,-9723.266,3909.448
0.684845,703,1925,-724,-105,-180,-18,12573.179,-505.300,-9743.338,3893.924,-186,-102,-90
0.704865,674,1911,-762,-106,-159,19,12561.292,-525.692,-9761.625,3883.773
0.724884,670,1921,-758,-87,-150,47,12554.382,-547.165,-9772.608,3875.520
0.744934,674,1877,-706,-24,-127,42,12553.118,-561.129,-9774.959,3871.690
0.764862,668,1860,-729,12,-42,20,12552.334,-565.599,-9774.817,3873.940
0.784882,638,1888,-762,-7,2,45,12548.819,-567.327,-9775.434,3883.503,-183,-105,-74
0.804901,619,1893,-789,-3,10,58,12548.268,-571.425,-9772.859,3891.158
0.824890,630,1879,-756,18,-2,46,12549.403,-578.416,-9768.843,3896.544,-183,-105,-74,25500
0.844910,613,1839,-747,12,21,48,12549.305,-584.034,-9766.407,3902.124
0.864929,646,1888,-784,22,-19,53,12547.653,-584.775,-9766.464,3907.178
0.884918,575,1894,-787,-43,27,40,12544.321,-582.483,-9769.346,3911.015,-181,-100,-67
0.904938,665,1907,-805,-24,6,-3,12546.081,-580.254,-9768.289,3908.340
0.924927,683,1866,-714,11,-16,-13,12545.661,-577.788,-9768.353,3909.891
0.944946,612,1853,-719,-41,31,0,12541.355,-570.656,-9771.470,3916.959
0.964935,633,1896,-756,-27,28,-1,12539.399,-569.277,-9772.273,3921.416
0.984985,598,1918,-767,-9,16,25,12538.956,-569.409,-9770.550,3927.102,-185,-104,-73
1.004974,610,1904,-775,5,17,28,12539.761,-569.947,-9767.542,3931.933
1.024964,582,1898,-776,18,3,26,12542.022,-573.729,-9762.754,3936.061
1.045014,601,1868,-757,34,-3,29,12546.310,-580.430,-9756.110,3937.886
1.065033,580,1863,-756,52,-26,32,12551.309,-589.327,-9749.120,3937.946
1.084992,612,1873,-780,53,-34,28,12556.155,-595.957,-9742.314,3938.345,-179,-93,-74
1.105011,632,1869,-808,48,-13,25,12561.172,-601.552,-9735.168,3939.167
1.125000,628,1842,-795,50,-18,15,12566.820,-609.182,-9727.738,3938.334
1.145020,662,1846,-795,52,-25,17,12572.047,-615.242,-9721.240,3936.752
1.165009,658,1848,-775,48,-23,7,12575.806,-620.439,-9716.490,3935.659
1.185028,635,1844,-790,25,-21,14,12577.909,-625.403,-9712.729,3937.437,-183,-112,-69
1.205017,585,1924,-762,17,-7,28,12579.637,-631.279,-9709.435,3939.102
1.225037,635,1844,-755,25,-33,31,12582.224,-645.845,-9705.359,3938.524
1.245056,677,1870,-757,58,-69,43,12583.798,-655.532,-9703.354,3936.831
1.265137,689,1902,-823,22,-32,19,12585.989,-658.820,-9700.155,3937.163
1.285065,677,1866,-787,15,9,6,12588.466,-660.381,-9696.250,3938.601,-183,-107,-85
1.305084,675,1869,-814,18,0,11,12590.003,-661.833,-9693.294,3940.721
1.325073,683,1852,-760,12,2,16,12591.553,-664.530,-9690.308,3942.658,-183,-107,-85,25497
1.345093,660,1868,-796,17,-6,21,12593.727,-667.514,-9686.462,3944.662
1.365082,671,1862,-762,26,-2,15,12597.295,-669.699,-9681.100,3946.060
1.385101,656,1859,-805,33,0,7,12601.696,-672.315,-9674.717,3947.219,-185,-104,-84
1.405121,653,1863,-768,39,0,15,12605.960,-674.199,-9668.056,3949.601
1.425110,676,1843,-777,39,10,14,12610.137,-674.479,-9661.480,3952.311
1.445130,662,1867,-791,33,21,10,12613.497,-673.250,-9655.689,3955.949
1.465119,649,1841,-784,28,26,10,12616.797,-673.399,-9649.932,3959.444
1.485138,675,1830,-809,28,10,16,12619.644,-675.307,-9644.376,3963.580,-172,-107,-83
1.505158,634,1833,-810,33,6,26,12622.440,-676.723,-9638.858,3967.856
1.525147,649,1843,-803,25,11,20,12624.528,-677.356,-9634.579,3971.500
1.545166,675,1850,-810,19,14,13,12626.173,-677.177,-9630.987,3975.011
1.565186,678,1857,-822,13,13,18,12627.923,-678.552,-9627.451,3977.781
1.585175,666,1826,-827,18,2,18,12630.136,-682.383,-9623.289,3980.171,-176,-102,-80
1.605164,657,1860,-792,27,-14,27,12631.349,-686.294,-9620.218,3983.069
1.625183,671,1824,-770,12,-6,25,12632.964,-689.690,-9617.486,3983.961
1.645172,666,1853,-811,14,-6,8,12633.749,-690.497,-9615.709,3985.622
1.665192,651,1858,-792,3,0,11,12634.569,-690.861,-9613.787,3987.594
1.685211,657,1863,-812,8,10,8,12635.991,-689.498,-9611.319,3989.274,-176,-98,-85
1.705200,665,1867,-797,9,6,5,12637.274,-690.622,-9609.049,3990.482
1.725220,681,1818,-769,7,3,9,12639.045,-690.363,-9606.052,3992.134
1.745209,681,1851,-785,15,7,4,12640.422,-692.817,-9603.548,3993.372
1.765228,648,1843,-780,6,-6,16,12641.053,-692.750,-9602.121,3994.819
1.785248,653,1849,-812,-1,14,3,12641.646,-690.632,-9600.578,3997.018,-181,-105,-85
1.805237,664,1851,-815,5,16,8,12643.104,-690.559,-9597.312,4000.262
1.825256,672,1852,-768,14,10,17,12644.943,-690.974,-9593.493,4003.537,-181,-105,-85,25515
1.845276,656,1856,-792,21,11,15,12647.295,-691.254,-9589.069,4006.656
1.865265,680,1868,-803,23,17,11,12649.947,-691.565,-9584.343,4009.535
1.885285,665,1851,-770,24,11,12,12652.552,-691.931,-9579.571,4012.655,-169,-105,-78
1.905274,690,1822,-787,21,15,14,12654.832,-693.110,-9575.219,4015.651
1.925293,673,1836,-850,14,1,28,12655.633,-692.792,-9572.403,4019.891
1.945282,668,1846,-823,5,14,15,12656.823,-691.749,-9570.067,4021.886
1.965302,673,1830,-806,3,11,1,12658.334,-690.730,-9567.946,4022.350
1.985321,666,1832,-815,7,6,-3,12659.815,-690.105,-9566.047,4022.313,-177,-108,-82
2.005310,667,1851,-813,8,2,-2,12661.376,-689.612,-9564.004,4022.345
2.025330,662,1858,-827,1,6,-4,12663.146,-688.075,-9561.985,4021.836
2.045349,674,1856,-801,8,2,-8,12664.796,-686.644,-9560.134,4021.285
2.065399,651,1841,-809,4,5,-6,12666.366,-684.817,-9558.400,4020.774
2.085327,675,1853,-823,4,6,-8,12668.256,-683.833,-9556.325,4019.918,-181,-102,-78
2.105347,661,1857,-797,11,-2,-6,12670.055,-684.141,-9554.149,4019.369
2.125366,655,1842,-821,12,-4,2,12671.936,-684.061,-9551.727,4019.210
2.145355,691,1860,-804,14,2,-5,12674.040,-684.168,-9549.225,4018.500
2.165375,654,1842,-832,11,-2,-1,12675.994,-685.233,-9546.714,4018.122
2.185394,658,1837,-838,10,0,2,12678.037,-686.733,-9544.165,4017.476,-181,-110,-90
2.205383,649,1847,-787,8,-3,-1,12680.574,-689.985,-9541.180,4016.003
2.225403,663,1850,-796,11,-15,10,12680.334,-691.730,-9541.333,4016.095
2.245392,686,1838,-809,-5,-11,2,12681.142,-692.421,-9540.823,4014.636
2.265412,679,1864,-823,0,-11,-5,12681.766,-692.771,-9540.671,4012.967
2.285431,672,1852,-821,-1,-7,-6,12683.020,-692.955,-9539.412,4011.965,-176,-95,-85
2.305420,671,1842,-806,7,-5,-3,12684.697,-693.974,-9538.101,4009.604
2.325440,660,1848,-830,5,-14,-14,12685.308,-694.588,-9538.213,4007.296,-176,-95,-85,25519
2.345429,689,1855,-820,-2,-13,-3,12687.314,-696.456,-9536.636,4004.372
2.365448,680,1835,-825,15,-25,-13,12689.686,-700.529,-9535.210,3999.541
2.385468,654,1865,-834,19,-40,-5,12693.477,-706.971,-9531.369,3995.532,-188,-102,-87
2.405457,687,1847,-783,44,-28,2,12699.399,-709.741,-9525.103,3991.160
2.425476,696,1853,-805,29,-11,-21,12702.946,-713.196,-9521.569,3987.688
2.445465,668,1862,-806,22,-13,-7,12706.980,-714.456,-9516.885,3985.794
2.465485,681,1847,-827,31,-9,-7,12710.579,-715.488,-9512.634,3984.279
2.485565,670,1849,-835,22,-1,-4,12713.680,-716.531,-9508.800,3983.351,-177,-104,-79
2.505493,684,1817,-808,16,-1,-3,12717.202,-716.104,-9504.068,3983.477
2.525482,709,1843,-816,26,5,0,12720.013,-716.435,-9499.795,3984.637
2.545502,685,1832,-839,18,8,8,12721.467,-716.623,-9496.381,3988.096
2.565521,689,1855,-818,4,12,16,12722.031,-715.887,-9493.314,3993.726
2.585510,715,1847,-678,12,28,20,12721.541,-714.650,-9491.031,4000.927,-179,-102,-83
2.605530,713,1847,-829,-16,27,33,12722.125,-713.157,-9487.361,4008.036
2.625519,751,1823,-872,21,35,23,12717.803,-713.455,-9490.552,4014.139
2.645538,692,1831,-823,-41,12,37,12707.312,-712.630,-9500.808,4023.240
2.665558,687,1839,-792,-61,35,66,12699.028,-711.360,-9507.849,4032.976
2.685547,696,1828,-804,-62,22,49,12693.899,-711.065,-9510.931,4041.896,-183,-114,-78
2.705567,678,1828,-807,-34,19,46,12689.205,-712.091,-9513.648,4050.054
2.725586,679,1844,-783,-32,13,44,12685.408,-713.146,-9515.857,4056.568
2.745575,678,1843,-803,-24,13,32,12682.063,-714.079,-9517.332,4063.396
2.765595,668,1841,-808,-25,9,46,12678.047,-717.451,-9519.196,4070.962
2.785584,687,1844,-806,-23,-8,57,12674.042,-723.311,-9521.542,4076.902,-176,-107,-99
2.805603,701,1835,-793,-20,-17,48,12670.952,-727.829,-9523.844,4080.327
2.825592,692,1850,-800,-23,-11,32,12669.032,-728.528,-9524.954,4083.572,-176,-107,-99,25513
2.845612,690,1855,-789,-13,5,14,12668.070,-729.756,-9525.362,4085.383
2.865631,700,1831,-758,-9,-11,11,12667.471,-731.357,-9526.437,4084.449
2.885620,693,1834,-798,-11,-14,6,12665.923,-733.772,-9527.728,4085.805,-176,-100,-90
2.905640,704,1821,-818,-9,-7,17,12666.332,-735.947,-9526.837,4086.224
2.925629,698,1814,-792,6,-9,2,12667.052,-737.052,-9525.692,4086.462
2.945648,696,1826,-806,2,-5,7,12667.391,-737.672,-9525.270,4086.283
2.965668,693,1838,-816,-3,-5,0,12667.501,-737.529,-9525.319,4085.855
2.985657,709,1837,-810,-9,-3,0,12666.797,-737.185,-9526.077,4086.330,-173,-111,-79
3.005676,698,1864,-799,-13,-2,5,12666.182,-737.262,-9526.633,4086.927
3.025696,684,1841,-806,-8,-4,2,12666.438,-736.940,-9526.483,4086.542
3.045685,702,1838,-788,-2,-2,-4,12666.893,-736.845,-9525.808,4086.723
3.065704,716,1841,-792,1,0,1,12667.331,-736.757,-9525.217,4086.755
3.085693,711,1841,-812,-2,-6,1,12668.037,-736.934,-9524.487,4086.238,-173,-94,-77
3.105713,712,1845,-786,-2,-3,0,12668.510,-737.066,-9523.729,4086.514
3.125702,698,1836,-773,0,0,4,12668.914,-737.000,-9522.993,4086.990
3.145722,687,1851,-807,-1,0,0,12669.563,-736.787,-9522.137,4087.011
3.165741,693,1839,-798,0,-1,-2,12670.391,-736.919,-9521.418,4086.095
3.185730,714,1840,-816,1,-7,-4,12671.641,-737.021,-9520.435,4084.490,-172,-114,-80
3.205719,702,1841,-806,3,-7,-7,12672.596,-737.021,-9519.580,4083.521
3.225769,695,1833,-807,0,-3,-3,12673.495,-736.846,-9518.672,4082.876
3.245758,696,1837,-788,1,-1,-4,12674.386,-736.467,-9517.745,4082.342
3.265747,683,1828,-825,2,0,-3,12675.049,-735.932,-9516.941,4082.255
3.285767,682,1828,-819,-2,2,-1,12675.418,-734.522,-9516.406,4082.609,-168,-99,-86
3.305786,683,1824,-823,-5,4,-3,12675.891,-733.306,-9515.962,4082.397
3.325775,699,1829,-803,-7,1,-4,12675.691,-732.850,-9516.313,4082.277,-168,-99,-86,25492
3.345795,683,1846,-821,-6,-9,1,12675.702,-734.377,-9516.498,4081.538
3.365814,691,1828,-819,-4,-16,-4,12676.258,-733.301,-9516.371,4080.302
3.385803,698,1823,-789,-5,3,-4,12676.611,-732.627,-9516.193,4079.741,-170,-104,-86
3.405792,713,1819,-796,-2,-3,-10,12676.779,-732.448,-9516.289,4079.026
3.425812,692,1848,-814,-8,-4,0,12675.273,-731.931,-9517.379,4081.256
3.445831,727,1847,-797,-25,19,12,12674.627,-728.654,-9517.002,4084.728
3.465820,730,1837,-823,-9,26,9,12673.653,-725.694,-9516.192,4090.160
3.485840,719,1843,-788,-9,32,18,12672.394,-721.580,-9515.217,4097.050,-167,-95,-78
3.505829,711,1829,-783,-12,34,20,12671.328,-717.898,-9514.351,4103.001
3.525849,703,1830,-812,-10,31,19,12669.655,-714.743,-9514.070,4109.365
3.545868,715,1833,-800,-19,34,24,12667.945,-711.672,-9513.823,4115.736
3.565857,721,1839,-813,-15,31,20,12666.069,-707.893,-9513.680,4122.487
3.585877,679,1823,-793,-20,40,23,12663.435,-704.432,-9513.842,4130.791,-172,-95,-78
3.605896,701,1862,-811,-22,45,31,12662.019,-704.430,-9512.373,4138.505
3.625885,709,1859,-775,7,20,36,12660.886,-702.865,-9511.211,4144.905
3.645874,694,1885,-769,-21,29,17,12660.031,-700.966,-9510.451,4149.580
3.665894,712,1815,-776,-14,24,8,12661.543,-693.242,-9509.802,4147.751
3.685913,700,1826,-845,4,23,-60,12664.602,-690.469,-9510.700,4136.803,-173,-108,-88
3.705994,715,1894,-866,-29,-52,-82,12668.685,-705.202,-9511.969,4118.856
3.725922,769,1865,-836,47,-126,-19,12674.780,-718.268,-9510.949,4100.163
3.745941,458,1644,-536,-5,-179,-82,12682.612,-733.532,-9508.669,4078.470
3.765930,749,1846,-852,97,-173,8,12684.211,-778.576,-9511.218,4059.158
3.785950,699,1884,-819,79,-262,41,12683.158,-792.901,-9513.448,4054.448,-163,-104,-79
3.805939,760,1759,-773,-35,8,34,12684.999,-778.516,-9510.167,4059.170
3.825958,731,1807,-791,34,93,-53,12687.442,-765.695,-9503.144,4070.405,-163,-104,-79,25484
3.845978,666,1816,-791,3,122,18,12687.745,-752.522,-9497.221,4085.714
3.865967,734,1833,-822,-4,102,35,12684.897,-740.762,-9493.953,4104.261
3.885986,751,1830,-750,-32,126,66,12679.899,-726.385,-9491.562,4127.737,-168,-94,-91
3.906006,743,1843,-807,-41,126,75,12671.209,-716.467,-9491.913,4155.255
3.925995,734,1829,-787,-55,154,98,12664.736,-700.954,-9488.690,4184.892
3.945984,863,1859,-780,-38,155,88,12657.286,-680.827,-9487.221,4213.983
3.966034,772,1788,-765,-64,184,78,12646.754,-657.299,-9486.736,4250.275
3.986023,731,1819,-874,-65,241,135,12632.053,-628.377,-9485.731,4300.316,-176,-91,-78
4.006012,744,1742,-908,-114,344,123,12619.658,-598.132,-9480.487,4352.272
4.026032,600,1768,-875,-72,264,147,12605.057,-563.122,-9483.194,4393.166
4.046021,819,1852,-909,-115,253,81,12595.983,-549.231,-9483.050,4421.170
4.066040,758,1846,-815,-98,136,92,12587.284,-577.573,-9476.324,4456.616
4.086029,598,1990,-762,343,-322,434,12585.771,-605.457,-9466.775,4477.432,-176,-91,-90
4.106049,644,1874,-814,38,36,134,12582.305,-607.135,-9463.269,4494.324
4.126068,665,1887,-830,-119,168,23,12576.299,-602.116,-9462.852,4512.652
4.146057,768,1839,-775,-49,97,66,12573.661,-602.538,-9458.985,4528.027
4.166077,724,1926,-814,-12,75,61,12567.891,-596.249,-9459.206,4544.386
4.186096,724,1948,-856,-37,72,58,12566.471,-599.996,-9454.938,4556.687,-166,-89,-86
4.206085,786,1921,-793,55,-9,79,12571.955,-598.444,-9442.776,4566.970
4.226105,689,1977,-786,29,85,9,12568.717,-590.754,-9438.019,4586.675
4.246094,781,1676,-612,-7,181,64,12575.826,-584.844,-9420.928,4603.054
4.266113,770,1836,-666,134,19,60,12575.592,-618.542,-9411.413,4618.726
4.286102,760,1826,-705,54,-5,148,12580.785,-614.616,-9401.892,4624.495,-170,-97,-84
4.306122,697,1753,-702,141,3,20,12592.434,-614.807,-9382.462,4632.219
4.326141,824,1954,-796,109,86,21,12601.726,-618.461,-9367.716,4636.307,-170,-97,-84,25500
4.346130,684,1709,-661,102,16,57,12610.949,-615.872,-9350.217,4646.885
4.366150,692,1746,-666,80,68,41,12612.978,-622.938,-9342.307,4656.335
4.386170,732,1772,-745,41,1,55,12611.987,-626.734,-9343.750,4655.615,-168,-94,-82
4.406159,736,1723,-822,-24,-53,6,12611.830,-641.317,-9348.058,4645.394
4.426178,696,1693,-840,19,-144,2,12608.058,-663.415,-9357.530,4633.446
4.446167,772,1704,-856,-37,-153,-1,12605.327,-679.932,-9369.487,4614.278
4.466187,741,1766,-985,-52,-164,-4,12596.580,-691.480,-9385.216,4604.473
4.486206,778,1777,-997,-96,-87,-12,12590.351,-694.194,-9397.964,4595.091,-164,-86,-90
4.506195,768,1795,-937,-80,-65,-34,12585.189,-696.463,-9408.638,4587.039
4.526184,814,1825,-949,-67,-57,-19,12578.435,-701.178,-9419.297,4582.967
4.546204,800,1829,-938,-75,-55,13,12570.989,-705.469,-9428.678,4583.448
4.566223,756,1827,-837,-65,-44,34,12565.357,-713.984,-9436.735,4580.994
4.586212,693,1817,-876,-49,-63,15,12559.250,-723.492,-9445.701,4577.769,-162,-93,-90
4.606232,743,1820,-861,-43,-88,27,12555.166,-734.783,-9454.774,4568.433
4.626221,819,1878,-809,-40,-113,-7,12552.471,-744.913,-9463.587,4555.933
4.646240,803,1872,-804,-36,-91,-17,12551.011,-755.934,-9468.682,4547.547
4.666260,767,1809,-757,-6,-88,9,12552.681,-771.305,-9468.515,4540.698
4.686249,767,1848,-824,27,-81,13,12552.569,-781.054,-9470.943,4534.275,-164,-93,-85
4.706268,792,1759,-725,10,-72,7,12556.191,-800.089,-9467.676,4527.743
4.726288,818,1776,-748,92,-107,34,12559.951,-814.119,-9464.557,4521.332
4.746277,825,1790,-746,19,-60,-7,12562.874,-829.374,-9463.008,4513.674
4.766297,835,1787,-716,82,-119,6,12565.948,-839.111,-9460.597,4508.367
4.786286,750,1825,-768,34,-38,8,12569.839,-846.261,-9455.429,4507.024,-151,-85,-95
4.806336,792,1817,-817,44,-33,20,12573.871,-858.321,-9451.186,4502.397
4.826325,827,1788,-792,31,-68,19,12574.919,-870.320,-9450.540,4498.518,-151,-85,-95,25525
4.846314,732,1838,-923,14,-54,13,12575.696,-877.039,-9450.965,4494.148
4.866333,825,1797,-746,1,-71,34,12577.540,-881.662,-9449.660,4490.826
4.886322,817,1811,-813,-4,-23,27,12577.953,-883.233,-9448.864,4491.034,-167,-98,-90
4.906342,808,1795,-815,0,-6,-4,12580.225,-885.341,-9446.417,4489.404
4.926392,793,1800,-813,31,-14,-9,12583.806,-886.523,-9443.025,4486.269
4.946350,803,1815,-842,15,-7,-14,12587.269,-885.912,-9440.089,4482.852
4.966370,780,1790,-821,16,-2,-24,12590.098,-886.247,-9437.526,4480.240
4.986389,803,1799,-824,16,-10,-9,12592.071,-890.705,-9435.971,4477.083,-164,-88,-90
5.006378,799,1791,-774,17,-39,-1,12592.721,-897.183,-9436.405,4473.046
5.026398,794,1800,-815,7,-44,3,12593.342,-901.217,-9437.040,4469.145
5.046387,799,1792,-789,-6,-30,-3,12592.673,-906.433,-9439.024,4465.783
5.066406,810,1771,-761,-9,-46,3,12591.438,-910.895,-9442.041,4461.977
5.086395,812,1794,-791,-10,-43,2,12589.142,-915.359,-9446.099,4458.954,-154,-85,-86
5.106415,810,1782,-782,-19,-38,3,12586.764,-918.305,-9450.065,4456.657
5.126404,790,1812,-808,-27,-26,3,12583.713,-919.255,-9454.655,4455.339
5.146423,818,1805,-780,-32,-16,3,12581.247,-920.485,-9458.236,4454.452
5.166412,786,1821,-770,-30,-16,4,12577.893,-921.073,-9462.515,4454.713
5.186432,799,1803,-785,-36,-8,7,12574.575,-919.906,-9466.875,4455.058,-174,-93,-92
5.206452,809,1796,-762,-27,-13,5,12571.906,-921.042,-9470.688,4454.252
5.226441,768,1829,-812,-37,-8,-4,12568.842,-920.413,-9475.412,4452.984
5.246491,786,1799,-799,-35,-9,-6,12567.445,-919.446,-9478.114,4451.372
5.266480,801,1811,-770,-16,-12,-8,12566.715,-919.081,-9480.630,4448.149
5.286469,796,1796,-810,-14,-17,-21,12565.916,-919.124,-9483.549,4444.176,-163,-99,-82
5.306488,802,1817,-779,-16,-27,-17,12566.145,-920.676,-9485.387,4439.281
5.326477,791,1822,-787,-7,-35,-11,12565.852,-923.766,-9487.372,4435.223,-163,-99,-82,25519
5.346497,814,1800,-780,-8,-32,-4,12566.070,-927.359,-9488.583,4431.264
5.366516,798,1809,-797,0,-35,-5,12566.531,-932.104,-9489.428,4427.152
5.386505,789,1811,-779,2,-38,-2,12566.817,-938.189,-9490.505,4422.744,-164,-88,-90
5.406525,804,1794,-776,9,-51,4,12568.289,-946.350,-9490.567,4416.686
5.426514,804,1798,-791,12,-54,-3,12570.209,-953.245,-9490.215,4410.489
5.446533,797,1794,-750,17,-50,-4,12572.018,-959.102,-9489.536,4405.522
5.466553,802,1804,-727,16,-38,-7,12574.425,-963.264,-9488.274,4400.460
5.486542,818,1793,-786,17,-33,-13,12576.504,-967.461,-9487.539,4395.178,-159,-82,-95
5.506561,798,1801,-759,14,-38,-8,12577.615,-971.678,-9488.094,4389.869
5.526550,816,1816,-780,5,-41,-11,12578.107,-974.436,-9489.766,4384.230
5.546570,814,1800,-802,-4,-34,-16,12577.741,-976.421,-9491.663,4380.729
5.566559,775,1788,-761,-8,-15,-11,12578.098,-976.449,-9492.117,4378.715
5.586578,798,1804,-793,-3,-11,-6,12579.284,-977.335,-9491.591,4376.250,-162,-98,-85
5.606568,804,1815,-760,4,-20,-5,12580.785,-978.883,-9490.132,4374.751
5.626587,834,1793,-754,10,-9,1,12582.757,-980.026,-9487.090,4375.424
5.646607,819,1817,-770,25,6,4,12586.064,-980.712,-9481.940,4376.921
5.666596,821,1813,-757,33,12,5,12589.764,-981.350,-9476.096,4378.793
5.686615,815,1791,-768,33,14,11,12593.629,-982.600,-9470.181,4380.195,-163,-99,-77
5.706604,795,1803,-762,42,0,3,12597.263,-983.436,-9465.180,4380.368
5.726624,812,1808,-771,26,4,0,12600.802,-984.789,-9460.485,4380.026
5.746643,831,1793,-780,29,-1,-3,12603.903,-985.443,-9456.567,4379.419
5.766663,808,1804,-790,24,2,-1,12605.772,-985.158,-9453.783,4380.115
5.786682,816,1812,-807,8,9,6,12607.598,-984.701,-9450.652,4381.717,-162,-88,-80
5.806641,801,1798,-794,10,11,1,12609.727,-983.945,-9447.346,4382.889
5.826660,798,1780,-812,15,9,-1,12611.434,-982.813,-9444.712,4383.908,-162,-88,-80,25497
5.846680,816,1803,-800,8,10,-1,12612.865,-981.869,-9442.606,4384.539
5.866669,814,1825,-792,8,8,-2,12614.306,-981.037,-9440.471,4385.178
5.886688,808,1792,-787,10,6,0,12616.227,-980.373,-9437.589,4386.003,-169,-98,-92
5.906708,804,1799,-794,13,7,-1,12618.679,-980.741,-9434.545,4385.417
5.926697,784,1812,-812,17,-1,-6,12620.811,-980.657,-9432.211,4384.321
5.946686,812,1801,-763,6,0,-6,12623.406,-979.916,-9429.868,4382.055
5.966705,789,1807,-808,5,2,-13,12623.953,-979.155,-9429.681,4381.053
5.986725,803,1778,-779,-9,-3,-3,12625.448,-978.618,-9428.546,4379.304,-159,-89,-84
6.006714,783,1796,-781,8,-2,-14,12625.446,-978.124,-9428.910,4378.637
6.026734,824,1786,-791,-4,1,-3,12625.950,-977.532,-9428.426,4378.358
6.046753,797,1800,-798,-3,-1,-2,12626.125,-977.106,-9428.023,4378.818
6.066742,818,1813,-817,-5,2,3,12626.584,-977.278,-9427.353,4378.899
6.086731,806,1793,-795,0,-6,1,12627.443,-977.683,-9426.783,4377.556,-155,-98,-85
6.106751,817,1791,-778,5,-7,-8,12628.468,-977.733,-9425.876,4376.543
6.126770,794,1814,-781,5,-2,-6,12629.725,-978.183,-9424.981,4374.743
6.146851,792,1798,-775,5,-9,-10,12630.573,-978.626,-9424.511,4373.208
6.166779,787,1822,-776,0,-7,-6,12631.371,-978.772,-9423.869,4372.253
6.186798,803,1803,-779,1,-2,-3,12632.338,-978.771,-9423.193,4370.916,-161,-94,-91
6.206818,805,1792,-820,4,-4,-9,12633.854,-978.228,-9421.913,4369.416
6.226807,812,1819,-795,7,-2,-12,12635.278,-977.567,-9420.739,4367.976
6.246826,796,1802,-780,3,-2,-10,12636.371,-977.315,-9419.820,4366.851
6.266815,797,1802,-805,4,-3,-7,12637.661,-977.416,-9418.521,4365.899
6.286835,794,1822,-799,8,-2,-5,12639.226,-978.244,-9416.485,4365.575,-159,-97,-86
6.306824,777,1802,-801,15,-5,0,12641.891,-980.245,-9413.575,4363.684
6.326843,814,1816,-804,24,-13,-4,12644.964,-982.636,-9410.358,4361.180,-159,-97,-86,25515
6.346832,791,1793,-775,23,-14,-4,12648.497,-985.119,-9406.403,4358.906
6.366852,806,1794,-807,33,-11,-10,12651.840,-987.202,-9402.813,4356.482
6.386871,804,1786,-788,23,-14,-4,12654.843,-989.163,-9399.761,4353.899,-156,-99,-75
6.406860,787,1807,-763,22,-15,-9,12657.381,-991.590,-9397.156,4351.590
6.426880,799,1792,-807,17,-15,2,12659.121,-993.412,-9395.085,4350.586
6.446900,807,1796,-802,9,-3,-1,12660.420,-994.475,-9393.549,4349.881
6.466889,815,1802,-799,11,-9,0,12661.638,-995.753,-9392.155,4349.052
6.486908,806,1795,-783,7,-6,0,12663.010,-997.099,-9390.503,4348.316,-156,-92,-95
6.506897,810,1803,-786,10,-6,0,12664.507,-997.608,-9389.026,4347.027
6.526917,800,1818,-806,6,-3,-6,12665.241,-997.422,-9388.695,4345.648
6.546906,808,1792,-776,3,-7,-7,12666.386,-997.288,-9387.858,4344.147
6.566925,804,1808,-771,-6,-4,-3,12666.396,-996.715,-9388.046,4343.844
6.586914,807,1802,-801,-5,0,-4,12666.628,-995.907,-9388.013,4343.426,-168,-89,-98
6.606934,806,1798,-784,-2,-1,-5,12667.029,-995.791,-9387.773,4342.802
6.626953,816,1793,-783,1,-5,-6,12667.382,-996.090,-9387.777,4341.695
6.646942,812,1808,-820,-2,-5,-4,12667.688,-996.033,-9387.599,4341.198
6.666962,819,1811,-793,-4,-2,-3,12668.304,-995.564,-9386.835,4341.162
6.686981,801,1799,-791,-1,-2,-3,12668.551,-995.420,-9386.646,4340.882,-172,-95,-85
6.706970,808,1783,-774,-6,-1,-1,12668.463,-994.742,-9386.628,4341.334
6.726990,789,1807,-813,-5,5,1,12668.586,-993.492,-9386.053,4342.504
6.746979,801,1816,-785,0,6,-1,12669.508,-991.988,-9384.723,4343.033
6.766998,783,1803,-811,5,9,-4,12670.167,-990.588,-9383.623,4343.805
6.786987,798,1791,-784,0,8,-2,12670.910,-989.326,-9382.744,4343.826,-169,-86,-85
6.807007,791,1818,-802,-1,3,-3,12671.552,-988.442,-9381.909,4343.959
6.827026,809,1814,-801,1,3,-3,12672.551,-987.474,-9380.587,4344.118,-169,-86,-85,25500
6.847016,804,1807,-789,6,4,-2,12673.715,-986.590,-9379.083,4344.170
6.867035,802,1808,-778,5,3,-6,12674.991,-985.905,-9377.510,4344.000
6.887024,805,1808,-776,9,3,-3,12676.337,-985.232,-9375.788,4343.941,-155,-91,-87
6.907044,811,1783,-779,6,4,-3,12677.562,-984.699,-9374.233,4343.844
6.927063,796,1792,-767,6,1,-3,12678.356,-984.370,-9373.125,4343.992
6.947083,801,1796,-805,0,2,0,12678.751,-983.849,-9372.517,4344.270
6.967072,790,1794,-786,1,3,0,12679.335,-983.087,-9371.717,4344.464
6.987091,807,1805,-820,2,4,-5,12680.050,-982.294,-9371.011,4344.077,-160,-86,-94
7.007080,798,1803,-794,1,2,-5,12680.775,-981.883,-9370.303,4343.582
7.027100,810,1792,-794,2,0,-5,12681.549,-981.385,-9369.711,4342.710
7.047089,798,1794,-808,2,1,-8,12682.162,-980.760,-9369.203,4342.157
7.067078,792,1804,-807,1,0,-5,12682.438,-980.380,-9368.996,4341.886
7.087097,796,1803,-798,-1,-1,-3,12683.134,-980.119,-9368.345,4341.313,-164,-88,-96
7.107117,807,1797,-800,2,0,-4,12683.766,-979.607,-9367.594,4341.204
7.127136,782,1811,-833,1,1,-2,12684.121,-979.073,-9367.065,4341.430
7.147125,804,1794,-798,-1,2,-2,12684.456,-977.957,-9366.642,4341.615
7.167145,813,1804,-793,-3,5,-2,12684.590,-976.938,-9366.474,4341.816
7.187134,801,1801,-810,-3,0,-4,12684.700,-976.257,-9366.784,4340.979,-161,-94,-79
7.207153,815,1819,-795,-6,-1,-6,12684.677,-975.191,-9367.121,4340.559
7.227173,804,1809,-797,-7,2,-4,12684.627,-974.328,-9367.445,4340.197
7.247162,784,1800,-811,-10,-2,-5,12684.033,-973.369,-9368.560,4339.744
7.267182,781,1797,-772,-14,0,-4,12683.205,-972.324,-9369.872,4339.566
7.287171,820,1808,-826,-12,-1,-3,12682.512,-971.098,-9370.954,4339.527,-157,-91,-87
7.307190,788,1801,-792,-10,0,-5,12682.388,-970.029,-9371.503,4338.945
7.327179,799,1792,-778,-8,0,-5,12682.046,-969.340,-9372.285,4338.410,-157,-91,-87,25521
7.347199,814,1794,-766,-14,-1,-6,12681.261,-968.814,-9373.768,4337.617
7.367279,785,1809,-787,-13,-7,-5,12680.695,-968.648,-9375.222,4336.165
7.387207,789,1804,-808,-10,-10,-8,12680.227,-968.718,-9376.563,4334.618,-172,-91,-94
7.407227,800,1802,-771,-11,-10,-4,12679.777,-969.154,-9377.801,4333.160
7.427216,786,1797,-777,-10,-11,-3,12679.362,-970.012,-9378.948,4331.699
7.447235,819,1784,-807,-7,-14,-3,12679.497,-970.815,-9379.479,4329.975
7.467224,797,1796,-797,-4,-12,-3,12679.787,-972.026,-9379.793,4328.172
7.487244,800,1804,-791,-5,-11,-5,12679.550,-973.289,-9380.755,4326.499,-164,-102,-85
7.507263,800,1792,-786,-9,-15,-3,12678.760,-974.609,-9382.485,4324.765
7.527283,790,1788,-810,-13,-15,-4,12678.148,-975.729,-9384.203,4322.580
7.547272,819,1803,-813,-10,-15,-6,12677.707,-976.323,-9385.824,4320.216
7.567291,801,1797,-796,-11,-16,-8,12677.104,-977.092,-9387.724,4317.684
7.587280,807,1793,-760,-15,-16,-7,12676.392,-978.338,-9389.662,4315.276,-161,-85,-86
7.607269,787,1783,-789,-12,-18,-5,12675.632,-979.760,-9391.454,4313.287
7.627289,803,1815,-784,-9,-19,-3,12674.755,-981.298,-9393.490,4311.080
7.647308,797,1794,-768,-13,-18,-4,12673.744,-982.814,-9395.588,4309.135
7.667328,794,1815,-795,-13,-19,-2,12673.008,-984.510,-9397.372,4307.020
7.687317,807,1818,-765,-10,-19,-3,12672.273,-986.103,-9398.916,4305.449,-156,-92,-77
7.707337,811,1813,-776,-12,-13,-2,12671.483,-987.275,-9400.286,4304.517
7.727326,808,1805,-782,-10,-9,2,12670.624,-988.558,-9401.736,4303.585
7.747345,802,1801,-760,-10,-15,2,12669.829,-990.918,-9403.449,4301.638
7.767365,793,1800,-786,-9,-24,1,12669.253,-992.583,-9404.559,4300.523
7.787354,824,1798,-781,-10,-9,2,12668.803,-994.034,-9405.325,4299.839,-169,-91,-87
7.807373,804,1788,-748,-7,-15,0,12667.702,-995.497,-9407.197,4298.648
7.827362,805,1818,-779,-14,-16,1,12666.324,-996.744,-9409.218,4297.998,-169,-91,-87,25525
7.847382,809,1805,-788,-14,-10,3,12665.877,-996.630,-9409.820,4298.023
7.867371,806,1796,-765,-6,1,-1,12666.096,-995.723,-9409.439,4298.422
7.887390,814,1798,-782,0,6,0,12666.677,-994.651,-9408.617,4298.758,-168,-92,-86
7.907410,800,1816,-776,0,4,-2,12666.825,-993.709,-9408.247,4299.349
7.927399,795,1798,-770,-3,3,1,12667.166,-993.151,-9407.807,4299.435
7.947418,790,1794,-753,-2,1,-1,12667.341,-992.794,-9407.430,4299.828
7.967407,795,1816,-770,-3,0,-1,12667.833,-992.090,-9406.690,4300.161
7.987427,802,1799,-750,2,4,-1,12668.703,-991.624,-9405.369,4300.596,-162,-93,-87
8.007446,801,1815,-767,7,3,0,12669.580,-990.854,-9404.262,4300.609
8.027435,816,1804,-766,3,3,-3,12670.166,-990.447,-9403.571,4300.487
8.047424,806,1807,-769,0,-1,-4,12670.737,-990.434,-9402.888,4300.302
8.067444,819,1791,-768,-3,-1,3,12670.856,-989.773,-9402.543,4300.856
8.087464,818,1803,-769,0,4,0,12671.452,-989.087,-9401.664,4301.181,-159,-97,-82
8.107483,802,1798,-762,1,7,-1,12672.228,-988.420,-9400.601,4301.372
8.127472,797,1824,-768,4,2,-2,12673.298,-987.895,-9399.306,4301.168
8.147492,798,1799,-784,6,4,-5,12674.328,-987.178,-9398.083,4300.972
8.167481,805,1804,-743,6,4,-4,12675.164,-986.475,-9396.882,4301.295
8.187500,801,1804,-795,4,6,0,12675.904,-985.887,-9395.775,4301.663,-160,-100,-83
8.207520,808,1796,-771,2,5,-1,12676.709,-985.267,-9394.549,4302.114
8.227509,814,1796,-775,5,4,-1,12677.455,-984.564,-9393.381,4302.626
8.247528,814,1816,-778,4,7,-1,12678.299,-983.688,-9391.909,4303.552
8.267517,817,1807,-763,5,8,2,12679.150,-982.493,-9390.358,4304.703
8.287537,803,1815,-767,5,10,1,12680.234,-981.578,-9388.681,4305.377,-150,-93,-90
8.307526,808,1784,-760,7,4,-2,12681.195,-981.292,-9387.682,4304.791
8.327545,797,1802,-784,5,1,-3,12681.866,-980.543,-9386.613,4305.315,-150,-93,-90,25531
8.347534,800,1807,-767,0,6,1,12683.007,-979.732,-9385.057,4305.532
8.367554,798,1785,-763,5,3,-5,12683.694,-979.173,-9384.030,4305.871
8.387573,792,1806,-771,2,4,-1,12684.245,-978.104,-9383.038,4306.653,-167,-100,-85
8.407593,811,1810,-787,4,9,1,12685.178,-976.680,-9381.318,4307.976
8.427582,822,1810,-744,5,16,1,12686.363,-975.009,-9379.032,4309.842
8.447571,791,1823,-765,11,15,1,12687.948,-973.209,-9376.369,4311.377
8.467590,794,1812,-756,10,17,0,12689.249,-971.368,-9374.158,4312.771
8.487610,812,1804,-764,10,16,-3,12690.808,-969.654,-9371.771,4313.758,-151,-89,-79
8.507599,821,1796,-784,9,13,-3,12692.210,-968.420,-9369.496,4314.852
8.527649,793,1794,-801,10,11,-1,12693.663,-967.772,-9366.964,4316.221
8.547638,796,1790,-771,12,10,3,12695.159,-967.353,-9364.460,4317.347
8.567627,815,1798,-762,12,8,2,12696.876,-966.597,-9361.730,4318.388
8.587677,786,1806,-794,12,10,1,12698.215,-965.865,-9359.430,4319.599,-168,-104,-86
8.607636,818,1794,-801,11,8,2,12699.336,-964.937,-9357.456,4320.789
8.627625,822,1819,-784,8,8,1,12700.234,-963.930,-9355.831,4321.894
8.647644,805,1808,-779,5,10,1,12701.347,-962.751,-9354.095,4322.641
8.667664,790,1802,-808,10,10,-2,12702.497,-961.598,-9352.375,4323.242
8.687683,792,1810,-804,6,8,-2,12703.568,-960.446,-9350.919,4323.498,-162,-93,-78
8.707672,826,1791,-812,7,7,-4,12704.557,-959.338,-9349.472,4323.969
8.727692,798,1794,-787,6,6,-4,12705.690,-958.799,-9347.866,4324.230
8.747711,786,1806,-789,7,5,-2,12706.525,-958.303,-9346.570,4324.690
8.767700,794,1798,-781,6,4,-1,12707.373,-957.750,-9345.383,4324.885
8.787720,804,1806,-793,5,3,-1,12708.116,-957.356,-9344.298,4325.134,-169,-100,-90
8.807709,811,1800,-797,4,2,0,12708.681,-956.855,-9343.390,4325.545
8.827728,791,1804,-786,2,3,0,12709.311,-956.261,-9342.480,4325.791,-169,-100,-90,25513
8.847717,807,1797,-794,5,4,-2,12710.114,-955.548,-9341.399,4325.927
8.867737,800,1797,-780,4,4,-2,12710.891,-955.126,-9340.343,4326.016
8.887756,804,1787,-800,2,0,-2,12711.205,-955.347,-9340.158,4325.443,-162,-86,-90
8.907745,816,1808,-804,-2,-3,-1,12711.486,-955.098,-9339.856,4325.326
8.927765,820,1787,-771,-2,-1,-3,12712.046,-954.588,-9339.054,4325.524
8.947754,809,1779,-775,0,2,-4,12712.322,-954.402,-9338.784,4325.337
8.967774,796,1815,-799,-1,0,-3,12712.488,-953.748,-9338.554,4325.490
8.987793,807,1803,-819,1,4,0,12712.740,-952.819,-9337.918,4326.327,-167,-91,-87
9.007782,796,1805,-805,0,8,-1,12713.684,-951.743,-9336.507,4326.831
9.027771,814,1806,-779,7,8,-3,12714.666,-950.260,-9335.000,4327.524
9.047791,794,1820,-798,3,12,-2,12715.474,-948.917,-9333.735,4328.173
9.067810,799,1804,-790,4,6,-4,12716.528,-947.712,-9332.380,4328.263
9.087830,794,1796,-790,7,5,-6,12717.531,-946.953,-9331.069,4328.309,-159,-92,-93
9.107819,798,1795,-788,6,3,-3,12718.253,-946.326,-9330.055,4328.511
9.127838,803,1812,-807,3,3,-2,12719.192,-945.947,-9328.732,4328.687
9.147827,794,1790,-782,7,1,0,12720.340,-945.733,-9327.112,4328.849
9.167847,809,1794,-777,9,3,-1,12721.350,-945.074,-9325.703,4329.063
9.187866,800,1791,-809,5,6,-5,12722.088,-944.304,-9324.599,4329.441,-159,-99,-88
9.207855,789,1816,-775,3,5,-4,12722.480,-943.752,-9324.027,4329.639
9.227844,813,1795,-799,0,3,-2,12723.006,-943.061,-9323.397,4329.602
9.247864,800,1806,-789,4,2,-1,12723.511,-942.129,-9322.704,4329.814
9.267883,814,1792,-775,2,4,-7,12724.285,-941.370,-9321.853,4329.538
9.287872,800,1814,-802,2,3,-5,12724.852,-940.497,-9321.284,4329.285,-167,-98,-85
9.307892,811,1794,-784,2,2,-4,12725.616,-939.614,-9320.459,4329.007
9.327881,800,1793,-787,2,3,-4,12726.177,-938.642,-9319.759,4329.076,-167,-98,-85,25503
9.347901,792,1791,-776,1,4,-2,12726.763,-937.973,-9319.042,4329.040
9.367920,800,1801,-793,2,3,-2,12727.059,-937.790,-9318.557,4329.255
9.387909,809,1794,-777,2,0,-2,12727.562,-937.540,-9317.974,4329.086,-146,-93,-83
9.407929,786,1793,-792,3,1,-3,12727.844,-937.322,-9317.729,4328.830
9.427918,794,1800,-778,-1,-1,-2,12728.174,-936.851,-9317.494,4328.468
9.447937,815,1814,-789,-3,0,-3,12728.428,-936.511,-9317.206,4328.414
9.467926,809,1788,-791,1,0,-1,12728.661,-936.225,-9316.919,4328.408
9.487946,807,1818,-764,-1,1,-2,12729.002,-935.913,-9316.588,4328.186,-167,-95,-96
9.507965,795,1804,-804,2,-2,-4,12729.293,-935.879,-9316.632,4327.243
9.527954,817,1802,-764,0,-1,-5,12729.611,-935.153,-9316.264,4327.257
9.547974,809,1792,-809,-2,2,1,12730.009,-934.546,-9315.711,4327.407
9.567993,807,1792,-776,1,0,-2,12730.157,-934.166,-9315.730,4327.012
9.587982,801,1811,-810,-5,0,-2,12730.198,-934.016,-9315.609,4327.184,-161,-92,-91
9.608002,805,1808,-790,0,1,1,12730.647,-933.311,-9314.751,4327.863
9.627991,814,1799,-790,5,5,0,12731.533,-932.397,-9313.391,4328.380
9.648010,790,1805,-797,5,8,-2,12732.245,-931.197,-9312.073,4329.380
9.668030,794,1806,-803,2,9,0,12732.783,-930.107,-9311.285,4329.727
9.688019,805,1799,-767,2,4,-4,12733.370,-929.289,-9310.497,4329.872,-161,-99,-84
9.708038,813,1791,-790,3,4,-1,12734.026,-928.880,-9309.469,4330.240
9.728027,803,1806,-789,3,3,0,12734.692,-928.581,-9308.411,4330.619
9.748047,802,1782,-787,4,3,0,12735.274,-928.264,-9307.317,4331.330
9.768036,815,1763,-766,2,4,1,12735.911,-927.796,-9306.336,4331.664
9.788056,804,1795,-800,5,4,-2,12736.579,-927.123,-9305.329,4332.006,-168,-97,-91
9.808106,808,1807,-784,2,4,-1,12737.063,-926.338,-9304.636,4332.238
9.828095,808,1814,-811,-1,3,-3,12736.964,-925.679,-9304.775,4332.372,-168,-97,-91,25492
9.848084,819,1790,-783,-6,2,-3,12736.963,-924.819,-9304.940,4332.205
9.868073,807,1781,-784,-5,1,-6,12736.891,-924.009,-9305.304,4331.808
9.888092,792,1788,-790,-6,-1,-4,12736.648,-923.344,-9306.023,4331.119,-166,-101,-91
9.908112,800,1802,-805,-9,-4,-6,12736.415,-922.760,-9306.934,4329.970
9.928101,797,1796,-796,-8,-5,-6,12736.219,-922.258,-9307.668,4329.077
9.948090,793,1813,-802,-7,-3,-5,12735.972,-922.074,-9308.361,4328.353
9.968109,778,1798,-804,-8,-5,-4,12735.521,-922.018,-9309.221,4327.844
9.988129,811,1807,-784,-8,-5,-3,12734.862,-922.029,-9310.559,4326.900,-157,-93,-85
10.008148,801,1803,-780,-11,-6,-4,12734.183,-922.383,-9311.874,4325.995
10.028137,810,1794,-798,-10,-9,-4,12733.410,-923.051,-9313.443,4324.748
10.048126,804,1797,-765,-11,-11,-2,12732.535,-923.668,-9315.029,4323.777
10.068176,794,1799,-797,-12,-11,-4,12731.632,-924.153,-9316.861,4322.385
10.088165,799,1804,-774,-13,-8,-4,12730.906,-924.500,-9318.352,4321.236,-159,-87,-91
10.108185,795,1813,-812,-11,-10,-4,12729.939,-925.285,-9320.112,4320.122
10.128174,797,1798,-758,-14,-10,0,12728.769,-926.504,-9322.129,4318.955
10.148193,784,1785,-779,-14,-15,0,12727.567,-928.258,-9324.497,4317.007
10.168183,792,1813,-766,-13,-18,-3,12726.760,-929.159,-9326.037,4315.867
10.188202,808,1800,-803,-15,-8,-2,12725.830,-929.757,-9327.775,4314.725,-163,-97,-91
10.208191,800,1798,-772,-13,-13,-4,12724.277,-930.800,-9330.386,4313.433
10.228211,786,1813,-779,-21,-14,-1,12722.600,-931.941,-9332.999,4312.482
10.248230,807,1814,-794,-17,-13,1,12721.319,-932.386,-9334.786,4312.296
10.268219,808,1798,-760,-11,-4,0,12720.890,-932.080,-9335.526,4312.026
10.288239,793,1811,-767,-6,-1,-3,12720.582,-931.627,-9336.151,4311.681,-163,-99,-95
10.308228,808,1818,-770,-7,-2,-4,12720.125,-931.602,-9336.983,4311.231
10.328247,815,1807,-771,-7,-7,0,12719.644,-932.038,-9337.745,4310.904,-163,-99,-95,25513
10.348267,786,1805,-795,-7,-6,0,12719.245,-932.484,-9338.301,4310.784
10.368256,801,1815,-782,-5,-3,2,12718.964,-933.167,-9338.625,4310.763
10.388275,794,1792,-789,-4,-3,4,12718.998,-933.400,-9338.582,4310.703,-170,-92,-86
10.408264,826,1801,-768,0,-1,0,12719.398,-933.485,-9337.971,4310.829
10.428284,809,1798,-767,3,3,-1,12719.641,-933.144,-9337.515,4311.174
10.448303,821,1792,-774,0,1,-1,12719.746,-932.830,-9337.369,4311.247
10.468292,801,1800,-768,-2,-1,-3,12719.535,-932.570,-9337.608,4311.408
10.488312,801,1813,-764,-4,0,1,12719.523,-931.978,-9337.561,4311.673,-161,-94,-84
10.508301,795,1794,-765,-1,1,-2,12719.852,-931.380,-9337.207,4311.599
10.528320,796,1808,-764,1,1,-3,12720.343,-930.882,-9336.807,4311.125
10.548309,803,1787,-783,0,0,-5,12720.912,-930.551,-9336.183,4310.869
10.568329,804,1812,-782,2,0,-4,12721.184,-930.119,-9335.646,4311.322
10.588349,791,1801,-761,-2,2,1,12721.212,-930.004,-9335.275,4312.068,-169,-93,-90
10.608338,797,1813,-762,0,4,4,12721.544,-929.698,-9334.624,4312.565
10.628357,794,1800,-776,4,2,-1,12721.938,-929.249,-9333.951,4312.955
10.648377,793,1796,-796,0,4,-1,12722.391,-928.754,-9333.011,4313.759
10.668396,789,1810,-758,4,5,2,12723.143,-928.225,-9331.636,4314.631
10.688385,804,1799,-814,4,6,1,12723.903,-927.562,-9330.236,4315.559,-166,-97,-86
10.708374,803,1812,-782,5,9,0,12724.795,-926.360,-9328.729,4316.444
10.728394,810,1787,-768,4,10,0,12725.617,-925.243,-9327.213,4317.536
10.748383,810,1800,-787,4,11,0,12726.296,-924.023,-9325.883,4318.668
10.768402,797,1814,-773,5,9,1,12727.074,-923.287,-9324.486,4319.549
10.788422,800,1801,-778,4,7,-1,12728.007,-922.366,-9322.861,4320.507,-169,-95,-87
10.808411,797,1800,-810,6,10,1,12728.979,-921.241,-9321.079,4321.726
10.828430,813,1797,-786,10,11,-1,12729.974,-919.898,-9319.247,4323.034,-169,-95,-87,25519
10.848419,794,1815,-784,8,13,0,12730.891,-918.271,-9317.397,4324.665
10.868439,806,1800,-792,7,16,2,12731.944,-916.279,-9315.075,4326.989
10.888428,823,1793,-767,9,23,3,12733.603,-913.832,-9311.815,4329.643,-162,-98,-90
10.908447,800,1781,-788,15,26,2,12735.531,-911.289,-9308.087,4332.521
10.928467,794,1802,-788,15,25,1,12737.184,-908.757,-9305.231,4334.329
10.948456,800,1812,-793,12,18,-4,12738.732,-907.064,-9302.532,4335.928
10.968475,819,1800,-773,12,16,0,12740.193,-905.738,-9299.852,4337.661
10.988464,806,1786,-783,11,14,2,12741.803,-904.648,-9297.050,4339.165,-160,-100,-87
11.008484,795,1806,-759,12,13,1,12743.271,-903.976,-9294.381,4340.713
11.028565,792,1796,-793,14,10,1,12744.906,-903.385,-9291.742,4341.686
11.048493,814,1787,-792,15,10,-1,12746.388,-902.727,-9289.280,4342.740
11.068512,813,1799,-832,10,9,3,12747.635,-902.134,-9287.116,4343.830
11.088532,807,1800,-814,10,8,-1,12748.417,-901.643,-9285.652,4344.767,-157,-100,-87
11.108521,811,1807,-768,4,7,2,12748.921,-901.230,-9284.623,4345.571
11.128540,795,1787,-819,4,5,1,12749.834,-900.822,-9283.097,4346.239
11.148529,797,1772,-780,7,6,0,12750.801,-900.453,-9281.739,4346.378
11.168549,805,1798,-794,6,3,-1,12751.458,-900.134,-9280.992,4346.115
11.188538,792,1797,-796,3,0,-4,12751.964,-900.364,-9280.455,4345.727,-167,-93,-87
11.208557,812,1800,-785,2,-2,-2,12752.488,-900.584,-9279.884,4345.364
11.228577,810,1794,-783,3,-1,-2,12752.959,-900.615,-9279.322,4345.176
11.248566,818,1804,-800,1,0,-1,12753.426,-900.723,-9278.810,4344.876
11.268585,812,1812,-802,3,-1,-2,12753.825,-900.801,-9278.234,4344.917
11.288574,811,1804,-787,0,0,0,12754.166,-900.982,-9277.790,4344.827,-161,-104,-79
11.308594,801,1797,-768,0,0,-1,12754.515,-901.172,-9277.325,4344.755
11.328613,802,1796,-808,3,1,-2,12754.733,-901.414,-9277.031,4344.693,-161,-104,-79,25531
11.348602,805,1806,-786,0,0,-1,12755.040,-901.200,-9276.631,4344.691
11.368622,792,1810,-797,0,1,-1,12755.052,-900.781,-9276.432,4345.167
11.388611,815,1818,-793,-2,1,2,12755.226,-900.547,-9276.181,4345.240,-161,-97,-84
11.408630,785,1788,-784,-1,-2,-1,12755.450,-900.741,-9276.148,4344.615
11.428650,775,1785,-780,-2,-4,-5,12755.741,-900.411,-9275.856,4344.452
11.448639,797,1787,-790,-2,0,-2,12756.173,-899.930,-9275.221,4344.637
11.468659,792,1808,-796,1,0,-2,12756.425,-899.676,-9274.973,4344.482
11.488648,807,1810,-790,-2,1,-2,12756.434,-899.259,-9274.805,4344.897,-169,-98,-94
11.508667,798,1805,-785,-2,3,2,12756.731,-898.572,-9274.120,4345.632
11.528687,815,1818,-795,1,7,-1,12757.434,-897.623,-9272.978,4346.201
11.548676,802,1800,-787,6,8,-1,12757.975,-896.412,-9272.000,4346.950
11.568665,810,1788,-787,2,10,-2,12758.536,-895.135,-9271.194,4347.286
11.588684,804,1797,-763,3,7,-3,12759.132,-894.297,-9270.352,4347.505,-160,-93,-87
11.608704,798,1818,-765,3,6,-4,12759.800,-893.297,-9269.341,4347.904
11.628723,798,1786,-794,5,6,-3,12760.292,-892.540,-9268.394,4348.634
11.648712,791,1782,-801,4,6,-1,12760.956,-892.049,-9267.126,4349.488
11.668732,820,1807,-774,5,6,2,12761.756,-891.729,-9265.842,4349.945
11.688721,817,1796,-786,7,4,1,12762.473,-891.072,-9264.453,4350.934,-164,-95,-90
11.708740,813,1797,-789,5,8,0,12762.983,-890.560,-9263.296,4352.007
11.728729,794,1799,-764,2,8,1,12763.421,-890.079,-9262.507,4352.499
11.748749,809,1811,-798,1,3,-1,12763.543,-889.671,-9262.123,4353.040
11.768738,807,1804,-807,0,2,0,12764.010,-888.990,-9261.503,4353.129
11.788757,796,1808,-801,1,4,-3,12764.492,-888.339,-9260.976,4352.970,-159,-94,-84
11.808777,793,1794,-782,0,3,-3,12764.867,-887.782,-9260.595,4352.793
11.828766,793,1796,-805,0,2,-4,12765.181,-887.190,-9260.352,4352.511,-159,-94,-84,25494
11.848786,806,1814,-801,-1,0,-4,12765.317,-886.928,-9260.130,4352.640
11.868805,796,1799,-774,-2,-1,0,12765.528,-886.843,-9259.985,4352.347
11.888794,804,1788,-792,-1,-3,-2,12765.827,-887.098,-9259.674,4352.077,-167,-98,-90
11.908814,808,1804,-795,1,-3,-1,12766.140,-887.179,-9259.360,4351.812
11.928833,798,1799,-812,1,0,-2,12766.237,-887.359,-9259.232,4351.762
11.948822,810,1787,-796,-2,-2,0,12766.257,-887.435,-9259.112,4351.944
11.968842,811,1807,-788,-3,-1,1,12766.310,-887.205,-9259.041,4351.986
11.988831,817,1816,-766,-2,0,-3,12766.552,-886.666,-9258.791,4351.919,-164,-100,-87
12.008850,819,1786,-775,1,2,-3,12766.845,-886.174,-9258.480,4351.822
12.028839,803,1788,-785,0,1,-3,12766.962,-885.633,-9258.430,4351.694
12.048859,789,1797,-792,-2,-1,-3,12767.047,-885.188,-9258.553,4351.274
12.068848,810,1799,-796,-4,0,-6,12767.199,-884.436,-9258.607,4350.865
12.088867,820,1790,-815,-4,0,-3,12767.188,-883.820,-9258.822,4350.566,-163,-97,-88
12.108856,822,1797,-784,-7,-3,-3,12766.413,-883.704,-9260.093,4350.157
12.128876,806,1812,-755,-14,-5,-1,12765.473,-883.755,-9261.673,4349.543
12.148895,814,1796,-797,-11,-6,-3,12764.749,-883.459,-9262.894,4349.129
12.168915,806,1782,-810,-10,-2,-4,12764.496,-882.889,-9263.548,4348.592
12.188904,800,1804,-793,-6,-1,-5,12764.286,-882.379,-9264.120,4348.095,-161,-89,-95
12.208923,800,1811,-794,-9,-1,-3,12763.868,-882.093,-9265.232,4347.009
12.228912,798,1812,-778,-8,-6,-5,12763.337,-882.472,-9266.461,4345.871
12.248993,799,1797,-797,-10,-8,-5,12762.809,-882.958,-9267.704,4344.673
12.268921,799,1804,-795,-10,-8,-2,12762.128,-883.660,-9269.052,4343.656
12.288941,783,1804,-784,-8,-11,-2,12761.626,-884.405,-9270.256,4342.408,-166,-99,-79
12.308930,804,1808,-776,-8,-11,-4,12761.041,-885.444,-9271.525,4341.207
12.328949,800,1798,-790,-7,-11,-1,12760.491,-886.283,-9272.829,4339.865,-166,-99,-79,25519
12.348969,804,1794,-782,-10,-14,-2,12759.728,-887.500,-9274.413,4338.477
12.368958,804,1798,-762,-14,-15,-2,12758.420,-888.895,-9276.682,4337.185
12.388977,801,1805,-811,-15,-14,0,12757.033,-889.747,-9279.063,4335.996,-157,-100,-94
12.408966,792,1809,-787,-16,-12,-2,12756.119,-890.556,-9280.916,4334.556
12.428986,792,1805,-780,-11,-12,-5,12755.367,-891.217,-9282.783,4332.634
12.449005,808,1792,-764,-10,-13,-7,12754.753,-892.292,-9284.244,4331.091
12.468994,802,1799,-748,-9,-14,-3,12754.373,-893.225,-9285.531,4329.256
12.489014,816,1804,-776,-8,-11,-7,12753.911,-894.034,-9286.559,4328.244,-166,-92,-88
12.509003,807,1814,-757,-7,-7,-3,12753.436,-894.650,-9287.633,4327.213
12.529022,793,1801,-791,-6,-9,-3,12753.213,-895.329,-9288.416,4326.050
12.549042,804,1790,-776,-6,-9,-3,12752.948,-895.991,-9289.154,4325.109
12.569031,802,1808,-796,-6,-7,-2,12752.725,-896.668,-9289.803,4324.230
12.589050,805,1801,-801,-6,-7,-3,12752.509,-896.995,-9290.395,4323.529,-168,-99,-84
12.609039,816,1816,-771,-5,-5,-2,12752.354,-896.889,-9290.763,4323.218
12.629059,803,1803,-767,-5,-1,-5,12752.127,-896.762,-9291.221,4322.929
12.649078,797,1800,-795,-6,-1,-1,12752.022,-896.514,-9291.380,4322.949
12.669068,814,1805,-774,-2,-1,-1,12751.952,-896.700,-9291.509,4322.839
12.689087,794,1793,-763,-2,-2,-1,12752.377,-896.396,-9291.040,4322.658,-162,-95,-80
12.709107,799,1807,-793,3,3,-5,12752.428,-895.990,-9290.893,4322.907
12.729096,813,1804,-802,1,1,-1,12752.385,-895.835,-9291.108,4322.603
12.749115,792,1817,-796,-6,-2,-2,12752.106,-895.331,-9291.549,4322.581
12.769135,806,1821,-763,-6,1,-2,12752.067,-894.355,-9291.191,4323.668
12.789124,818,1821,-776,1,12,1,12752.791,-892.770,-9289.530,4325.431,-167,-93,-85
12.809113,819,1805,-758,10,15,0,12754.094,-891.200,-9287.325,4326.645
12.829132,809,1803,-782,7,13,-2,12754.961,-889.715,-9285.833,4327.598,-167,-93,-85,25529
12.849152,807,1820,-775,4,10,-3,12755.461,-888.928,-9284.876,4328.341
12.869141,797,1801,-771,5,6,2,12756.089,-888.243,-9283.679,4329.197
12.889160,796,1795,-803,4,6,2,12756.706,-887.612,-9282.370,4330.315,-161,-94,-82
12.909149,809,1794,-780,5,7,2,12757.466,-886.741,-9280.955,4331.289
12.929169,801,1793,-797,5,8,-2,12758.228,-885.839,-9279.658,4332.009
12.949188,802,1793,-811,7,9,1,12758.576,-885.028,-9278.775,4333.038
12.969177,816,1801,-777,0,5,2,12758.782,-884.175,-9278.248,4333.737
12.989197,808,1809,-776,0,5,0,12758.735,-883.535,-9277.953,4334.634,-163,-97,-93
13.009186,821,1802,-783,-3,5,5,12758.459,-882.728,-9277.884,4335.758
13.029205,810,1795,-757,-3,6,2,12758.501,-881.968,-9277.495,4336.622
13.049194,799,1805,-758,2,5,0,12758.592,-881.531,-9277.053,4337.389
13.069214,802,1791,-765,0,3,2,12758.693,-881.273,-9276.838,4337.603
13.089234,804,1799,-766,-1,-1,-1,12758.707,-881.160,-9276.762,4337.750,-166,-97,-84
13.109223,793,1816,-787,-2,-1,0,12758.694,-880.934,-9276.686,4337.997
13.129242,815,1825,-804,-2,-1,1,12758.699,-880.904,-9276.569,4338.239
13.149231,824,1788,-772,-2,-1,4,12758.933,-881.068,-9276.240,4338.221
13.169251,807,1819,-763,2,-1,0,12759.356,-881.475,-9275.704,4338.039
13.189270,795,1784,-771,1,-3,0,12759.702,-881.975,-9275.193,4338.012,-163,-101,-88
13.209259,802,1814,-778,1,-1,0,12760.094,-882.409,-9274.597,4338.045
13.229279,815,1814,-771,3,0,-1,12760.541,-882.320,-9273.957,4338.115
13.249268,805,1820,-781,2,1,0,12760.908,-882.421,-9273.358,4338.297
13.269287,810,1815,-770,2,1,2,12761.189,-882.463,-9272.912,4338.414
13.289276,823,1798,-778,1,-1,0,12761.358,-883.331,-9272.829,4337.918,-164,-86,-78
13.309296,805,1790,-786,-1,-10,-1,12761.572,-884.025,-9272.702,4337.420
13.329315,808,1793,-763,-2,-5,-1,12761.723,-884.505,-9272.592,4337.113,-164,-86,-78,25519
13.349304,812,1807,-787,-2,-4,1,12761.467,-885.655,-9273.124,4336.492
13.369293,807,1822,-783,-4,-9,1,12760.946,-886.708,-9273.815,4336.336
13.389343,794,1811,-783,-5,-7,4,12760.339,-887.476,-9274.469,4336.566,-157,-91,-90
13.409332,804,1775,-775,-5,-3,3,12760.144,-888.221,-9274.656,4336.583
13.429352,818,1797,-802,-2,-5,1,12760.005,-888.570,-9274.960,4336.271
13.449341,814,1805,-772,-4,-5,-2,12759.882,-888.788,-9275.533,4335.365
13.469422,800,1810,-786,-4,-8,-4,12759.678,-888.835,-9276.328,4334.253
13.489349,802,1806,-785,-6,-6,-6,12759.676,-888.960,-9276.681,4333.480,-159,-97,-98
13.509369,804,1778,-781,-2,-5,0,12759.481,-889.433,-9277.168,4332.914
13.529358,810,1807,-775,-5,-7,-1,12759.475,-889.936,-9277.783,4331.511
13.549378,790,1793,-767,-4,-11,-8,12759.234,-890.082,-9278.999,4329.585
13.569397,801,1799,-819,-10,-11,-10,12758.885,-889.823,-9280.395,4327.674
13.589386,754,1753,-815,-10,-9,-10,12760.374,-888.697,-9279.177,4326.127,-162,-98,-80
13.609406,762,1792,-747,18,9,-14,12765.197,-886.075,-9273.064,4325.542
13.629425,805,1790,-644,40,22,-11,12769.460,-886.693,-9266.926,4325.989
13.649414,821,1767,-741,41,-3,7,12769.437,-889.920,-9267.505,4324.154
13.669434,874,1851,-867,-15,-37,1,12765.274,-895.663,-9275.992,4317.056
13.689423,872,1888,-815,-63,-62,-14,12764.460,-897.124,-9280.784,4308.854,-164,-102,-83
13.709412,838,1812,-830,-9,-29,-36,12766.773,-895.452,-9280.425,4303.117
13.729462,794,1764,-797,9,-8,-33,12768.321,-896.175,-9280.339,4298.554
13.749451,769,1769,-791,-4,-22,-16,12767.815,-897.964,-9282.772,4294.432
13.769470,758,1766,-762,-18,-24,-11,12766.263,-898.031,-9285.753,4292.586
13.789459,811,1783,-788,-14,-4,-6,12766.132,-899.059,-9286.243,4291.700,-163,-99,-77
13.809448,820,1788,-734,-5,-17,2,12764.344,-900.462,-9288.647,4291.523
13.829468,801,1809,-785,-11,-11,0,12762.692,-902.957,-9290.909,4291.013,-163,-99,-77,25500
13.849487,786,1821,-781,-12,-18,6,12761.796,-904.853,-9292.838,4289.100
13.869476,797,1820,-771,-12,-16,-6,12760.958,-904.754,-9294.757,4287.458
13.889496,809,1831,-784,-14,-1,-7,12760.336,-902.897,-9295.867,4287.295,-166,-99,-70
13.909516,810,1817,-801,-8,8,-4,12760.690,-900.417,-9295.717,4287.089
13.929535,813,1844,-770,-1,6,-12,12759.634,-898.267,-9296.882,4288.154
13.949524,795,1816,-749,-10,18,2,12759.269,-895.929,-9297.047,4289.371
13.969544,769,1798,-755,1,9,-7,12759.269,-895.264,-9297.583,4288.348
13.989533,784,1791,-767,-8,-2,-9,12759.283,-894.601,-9298.261,4286.976,-166,-97,-84
14.009522,796,1813,-790,-2,-3,-9,12760.283,-894.599,-9297.484,4285.685
14.029572,796,1809,-755,11,-4,-7,12762.609,-894.491,-9295.043,4284.075
14.049561,811,1791,-748,20,1,-9,12764.983,-893.761,-9292.289,4283.127
14.069550,795,1785,-765,16,4,-10,12766.969,-893.271,-9290.516,4281.158
14.089569,810,1780,-749,11,-6,-15,12769.395,-893.966,-9289.108,4276.831,-169,-100,-90
14.109589,773,1794,-780,14,-20,-23,12771.300,-895.435,-9288.927,4271.225
14.129578,818,1811,-775,5,-28,-22,12772.016,-897.872,-9290.613,4264.899
14.149597,793,1826,-780,-11,-38,-18,12771.061,-899.863,-9293.774,4260.450
14.169586,786,1834,-800,-15,-24,-15,12770.900,-900.528,-9295.574,4256.864
14.189606,813,1811,-757,-8,-12,-17,12771.212,-899.218,-9296.179,4254.883,-163,-99,-79
14.209595,790,1805,-773,-3,1,-13,12772.136,-896.398,-9295.613,4253.941
14.229614,803,1793,-789,0,12,-17,12773.174,-893.482,-9295.168,4252.411
14.249634,806,1808,-810,-1,6,-17,12773.433,-891.478,-9295.589,4251.132
14.269653,794,1812,-790,-11,-1,-12,12773.022,-890.914,-9296.627,4250.218
14.289642,800,1822,-764,-7,-6,-3,12772.468,-891.568,-9297.500,4249.836,-166,-99,-93
14.309631,817,1816,-771,-9,-11,3,12771.791,-893.899,-9298.454,4249.293
14.329651,813,1841,-792,-4,-15,6,12771.310,-895.717,-9299.107,4248.925,-166,-99,-93,25509
14.349671,810,1823,-751,-1,-11,5,12771.185,-897.195,-9299.232,4248.715
14.369660,816,1804,-782,-3,-12,5,12770.264,-898.789,-9300.363,4248.673
14.389679,796,1823,-763,-11,-12,6,12769.135,-902.223,-9301.797,4248.198,-163,-92,-82
14.409668,797,1793,-772,-6,-26,12,12767.731,-907.600,-9303.871,4246.730
14.429688,782,1799,-744,-7,-37,13,12766.313,-912.947,-9306.143,4244.869
14.449707,780,1792,-761,-13,-31,11,12764.527,-917.687,-9308.893,4243.187
14.469696,802,1827,-738,-14,-33,8,12762.051,-923.083,-9312.857,4240.766
14.489716,793,1826,-755,-21,-42,9,12759.167,-929.108,-9317.584,4237.745,-160,-102,-83
14.509705,813,1804,-733,-27,-48,12,12756.423,-935.213,-9322.317,4234.251
14.529724,813,1792,-745,-23,-45,3,12754.127,-941.131,-9326.390,4230.884
14.549744,798,1799,-736,-15,-41,5,12752.215,-946.681,-9329.833,4227.820
14.569733,834,1800,-727,-11,-38,2,12749.948,-950.992,-9333.828,4224.869
14.589752,796,1824,-726,-19,-36,4,12747.591,-955.555,-9337.684,4222.433,-166,-101,-75
14.609741,801,1790,-729,-18,-32,5,12746.188,-958.031,-9339.894,4221.216
14.629761,820,1791,-740,-9,-12,5,12745.403,-958.687,-9341.004,4220.983
14.649780,810,1799,-726,-8,-3,1,12744.874,-958.373,-9341.710,4221.088
14.669769,792,1803,-746,-4,-1,0,12745.009,-958.016,-9341.640,4220.918
14.689850,804,1800,-731,-1,0,-3,12745.119,-957.049,-9341.832,4220.382,-156,-97,-75
14.709778,806,1817,-725,-2,-1,-5,12745.384,-956.041,-9341.790,4219.901
14.729797,797,1815,-768,1,3,-5,12746.304,-954.713,-9340.695,4219.848
14.749787,806,1819,-735,5,8,-6,12747.823,-952.791,-9338.878,4219.715
14.769806,793,1819,-736,11,13,-9,12749.978,-951.270,-9336.131,4219.624
14.789826,824,1833,-769,18,10,-7,12752.140,-950.111,-9333.430,4219.327,-168,-89,-82
14.809845,802,1819,-759,16,7,-8,12754.116,-949.403,-9330.960,4218.978
14.829834,808,1816,-760,16,5,-5,12756.072,-948.952,-9328.300,4219.049,-168,-89,-82,25515
14.849823,821,1804,-746,18,5,-4,12758.325,-948.600,-9325.257,4219.042
14.869873,804,1790,-772,20,6,-2,12760.312,-947.858,-9322.269,4219.802
14.889862,796,1809,-755,18,12,0,12761.821,-946.993,-9319.584,4221.365,-164,-88,-87
14.909851,789,1796,-759,10,11,3,12762.884,-946.010,-9317.502,4222.966
14.929871,810,1786,-760,7,13,6,12763.380,-945.198,-9316.170,4224.587
14.949860,812,1819,-750,4,9,4,12763.816,-944.834,-9314.991,4225.950
14.969879,795,1820,-770,6,6,7,12763.950,-945.175,-9313.937,4227.793
14.989899,811,1824,-723,7,0,7,12764.825,-946.931,-9312.785,4227.294,-159,-87,-86
15.009888,818,1815,-760,10,-13,3,12765.468,-949.661,-9312.430,4225.524
15.029907,809,1803,-765,8,-20,-2,12766.489,-953.321,-9311.873,4222.839
15.049927,800,1798,-743,11,-26,-1,12767.943,-956.856,-9310.848,4219.904
15.069916,835,1780,-748,14,-23,-1,12770.327,-961.367,-9309.306,4215.063
15.089935,830,1764,-759,20,-32,-14,12772.770,-965.413,-9307.523,4210.674,-159,-97,-75
15.109924,856,1785,-773,24,-33,-10,12775.346,-969.207,-9305.612,4206.208
15.129944,838,1803,-765,18,-24,-13,12776.564,-972.017,-9305.015,4203.179
15.149933,854,1823,-750,6,-19,-6,12776.813,-975.364,-9305.439,4200.708
15.169953,864,1810,-796,-3,-28,0,12775.847,-976.799,-9307.046,4199.753
15.189942,846,1813,-766,-17,-4,4,12774.835,-975.284,-9308.453,4200.066,-164,-91,-78
15.209961,837,1772,-740,-16,9,-5,12774.300,-971.366,-9308.949,4201.501
15.229981,810,1786,-789,-7,24,-10,12774.457,-965.835,-9308.500,4203.291
15.250000,759,1790,-761,-5,33,-13,12774.672,-959.332,-9307.810,4205.656
15.269989,744,1762,-729,-6,35,-12,12775.336,-953.216,-9306.689,4207.512
15.290009,763,1783,-750,0,30,-11,12777.002,-947.731,-9304.372,4208.815,-162,-91,-83
15.309998,748,1823,-772,9,29,-12,12778.922,-941.807,-9301.946,4209.677
15.330017,782,1822,-782,7,30,-17,12780.998,-937.723,-9299.167,4210.427,-162,-91,-83,25497
15.350006,785,1843,-759,9,30,-13,12782.827,-932.350,-9296.562,4211.819
15.370026,792,1856,-761,7,29,-11,12784.241,-928.202,-9294.323,4213.385
15.390045,787,1850,-798,5,27,-8,12785.265,-923.819,-9292.967,4214.233,-150,-95,-85
15.410065,749,1838,-793,0,16,-10,12785.929,-920.836,-9292.057,4214.878
15.430023,766,1792,-761,0,13,-6,12786.489,-919.046,-9291.486,4214.827
15.450043,771,1788,-746,5,6,-6,12787.580,-917.293,-9290.149,4214.845
15.470062,751,1792,-736,6,10,-6,12788.795,-916.313,-9288.740,4214.477
15.490082,762,1795,-739,10,1,-6,12790.247,-916.012,-9287.208,4213.514,-159,-99,-84
15.510071,772,1820,-750,11,-1,-6,12791.499,-916.402,-9285.876,4212.564
15.530060,782,1803,-759,9,-4,-2,12792.343,-917.460,-9284.846,4212.040
15.550079,801,1813,-753,7,-4,1,12792.951,-918.995,-9283.983,4211.761
15.570068,784,1827,-772,3,-5,2,12793.458,-920.366,-9283.179,4211.695
15.590088,806,1827,-784,7,-6,4,12793.527,-921.737,-9283.072,4211.422,-162,-88,-83
15.610108,794,1821,-747,0,-8,3,12793.769,-923.215,-9282.824,4210.911
15.630097,811,1787,-769,3,-7,3,12794.554,-924.817,-9281.867,4210.281
15.650116,821,1792,-780,12,-8,-1,12795.390,-927.309,-9280.581,4210.028
15.670105,852,1785,-793,12,-8,3,12796.059,-930.138,-9279.553,4209.636
15.690125,838,1797,-771,4,-16,8,12796.270,-932.805,-9278.772,4210.128,-173,-92,-84
15.710144,846,1787,-762,7,-6,11,12796.174,-933.975,-9278.096,4211.648
15.730164,816,1795,-785,4,7,9,12795.554,-933.428,-9278.075,4213.699
15.750153,784,1783,-772,-7,8,4,12794.539,-931.491,-9278.836,4215.535
15.770172,815,1777,-746,-13,11,0,12793.225,-928.043,-9279.778,4218.209
15.790161,794,1804,-746,-22,24,3,12790.911,-924.025,-9282.046,4221.117,-157,-88,-78
15.810181,788,1800,-745,-25,23,-1,12788.722,-919.271,-9284.265,4223.908
15.830170,795,1807,-739,-28,25,1,12786.253,-915.186,-9286.618,4227.096,-157,-88,-78,25505
15.850189,768,1847,-728,-27,23,5,12783.986,-911.369,-9288.753,4230.084
15.870209,758,1836,-747,-22,22,3,12782.794,-908.446,-9289.783,4232.052
15.890198,742,1865,-765,-9,15,3,12782.974,-906.963,-9289.209,4233.087,-170,-94,-84
15.910278,747,1875,-745,6,4,0,12785.342,-908.518,-9286.712,4231.079
15.930206,764,1873,-770,29,-18,-6,12790.513,-914.519,-9281.553,4225.476
15.950226,787,1887,-750,61,-46,-10,12798.816,-925.703,-9272.872,4216.949
15.970215,795,1875,-759,96,-73,-10,12809.847,-942.631,-9261.080,4205.602
15.990235,854,1853,-792,132,-102,-4,12822.788,-963.986,-9246.982,4192.328,-167,-93,-90
16.010224,902,1821,-835,145,-116,-6,12836.783,-987.074,-9231.592,4178.017
16.030243,962,1804,-840,151,-117,-10,12851.261,-1007.820,-9215.081,4164.984
16.050263,974,1779,-847,149,-95,-12,12865.171,-1024.011,-9198.073,4155.678
16.070252,949,1769,-872,139,-59,-6,12877.573,-1034.996,-9181.635,4150.891
16.090271,904,1757,-825,119,-22,-3,12887.310,-1040.504,-9167.279,4151.024,-164,-88,-90
16.110260,846,1735,-804,88,15,8,12894.085,-1039.753,-9155.753,4155.610
16.130280,776,1695,-753,61,55,9,12900.346,-1032.178,-9143.820,4164.333
16.150299,728,1723,-699,56,99,9,12905.093,-1019.246,-9132.642,4177.317
16.170288,727,1682,-620,33,118,15,12906.303,-1006.288,-9126.700,4189.691
16.190308,708,1679,-625,-10,96,20,12901.439,-993.823,-9130.328,4199.731,-169,-91,-80
16.210327,703,1758,-781,-72,71,7,12892.367,-979.722,-9141.573,4206.433
16.230316,679,1767,-784,-111,62,-7,12883.315,-965.768,-9153.526,4211.399
16.250336,728,1815,-812,-100,60,-9,12876.791,-952.568,-9162.383,4215.098
16.270355,726,1870,-902,-66,54,-17,12872.426,-941.520,-9167.574,4219.621
16.290344,746,1881,-932,-52,42,-1,12867.785,-935.624,-9172.569,4224.230,-173,-97,-86
16.310333,800,1893,-925,-43,21,15,12864.889,-935.536,-9175.469,4226.773
16.330353,794,1876,-903,-22,-12,17,12865.118,-939.735,-9174.751,4226.701,-173,-97,-86,25529
16.350342,771,1845,-858,29,-22,11,12869.605,-946.877,-9168.121,4225.833
16.370361,782,1824,-832,60,-36,14,12872.997,-958.189,-9164.771,4220.217
16.390350,793,1772,-777,33,-76,2,12876.327,-970.863,-9163.449,4210.019,-157,-93,-90
16.410370,783,1746,-759,34,-90,-13,12880.994,-982.984,-9161.792,4196.513
16.430390,790,1725,-700,46,-88,-42,12885.403,-991.236,-9161.476,4181.703
16.450409,817,1750,-785,18,-73,-48,12886.031,-997.117,-9164.943,4170.755
16.470398,814,1750,-749,-11,-63,-24,12887.812,-1001.625,-9167.182,4159.237
16.490418,870,1685,-727,27,-57,-51,12891.307,-1003.655,-9166.897,4148.529,-161,-92,-95
16.510407,858,1723,-767,9,-31,-44,12891.235,-1001.345,-9170.224,4141.956
16.530426,876,1767,-786,-33,-12,-35,12887.069,-999.463,-9177.807,4138.576
16.550446,845,1825,-813,-64,-9,-13,12879.558,-994.786,-9187.961,4140.555
16.570435,863,1873,-832,-87,15,8,12871.642,-990.360,-9196.882,4146.419
16.590454,844,1835,-836,-72,33,19,12865.373,-981.983,-9202.843,4154.635,-172,-98,-94
16.610443,844,1848,-860,-61,55,15,12860.027,-973.470,-9207.000,4163.968
16.630463,836,1856,-855,-54,60,23,12855.579,-964.230,-9209.501,4174.311
16.650482,801,1812,-818,-37,68,23,12853.150,-955.720,-9208.995,4184.851
16.670471,774,1811,-875,-16,69,24,12851.440,-947.418,-9207.047,4196.261
16.690491,765,1808,-806,-11,67,28,12851.174,-940.212,-9203.841,4205.717,-162,-93,-85
16.710480,698,1804,-795,4,61,23,12852.004,-933.644,-9199.471,4214.200
16.730499,764,1742,-763,12,58,16,12855.185,-927.849,-9193.847,4218.047
16.750519,762,1776,-790,28,37,-7,12855.790,-923.955,-9191.853,4221.402
16.770508,800,1777,-765,2,18,2,12856.493,-921.957,-9190.857,4221.866
16.790527,786,1812,-763,6,8,-3,12856.729,-922.357,-9190.545,4221.738,-169,-93,-90
16.810516,818,1858,-761,-1,-11,-1,12855.937,-924.620,-9192.912,4218.502
16.830536,799,1866,-715,-14,-33,-11,12853.993,-929.513,-9198.359,4211.469,-169,-93,-90,25529
16.850525,833,1842,-767,-26,-57,-15,12851.579,-934.171,-9204.791,4203.748
16.870545,830,1796,-768,-28,-58,-18,12848.501,-940.262,-9212.065,4195.859
16.890534,824,1775,-800,-29,-72,-12,12844.426,-949.047,-9221.397,4185.845,-157,-102,-85
16.910553,805,1761,-789,-38,-91,-18,12842.060,-955.403,-9228.513,4175.963
16.930573,803,1775,-802,-25,-63,-24,12840.654,-957.930,-9233.321,4169.073
16.950592,776,1798,-797,-17,-27,-25,12839.990,-955.937,-9235.623,4166.479
16.970581,787,1838,-793,-16,10,-12,12838.503,-950.646,-9236.894,4169.453
16.990601,773,1858,-816,-23,36,3,12835.544,-943.664,-9239.183,4175.074,-172,-84,-90
17.010590,796,1864,-811,-33,39,8,12833.573,-937.736,-9241.149,4178.118
17.030609,800,1837,-778,-24,27,-5,12831.117,-934.632,-9243.799,4180.492
17.050598,789,1818,-777,-26,9,6,12827.859,-933.921,-9247.384,4182.717
17.070618,775,1802,-793,-30,-2,13,12824.836,-935.354,-9250.807,4184.101
17.090607,783,1765,-771,-23,-17,16,12822.846,-939.051,-9252.986,4184.554,-162,-91,-85
17.110626,781,1756,-774,-10,-24,17,12820.706,-942.931,-9255.620,4184.413
17.130707,806,1776,-739,-16,-22,9,12819.161,-946.192,-9257.872,4183.429
17.150635,812,1814,-679,-12,-20,4,12818.313,-947.281,-9259.912,4181.266
17.170654,824,1804,-707,-9,-13,-11,12816.474,-948.530,-9263.303,4179.107
17.190674,804,1816,-720,-21,-22,-6,12813.706,-950.209,-9268.170,4176.421,-169,-93,-87
17.210663,809,1829,-697,-31,-27,-5,12809.889,-952.983,-9274.730,4172.933
17.230683,816,1811,-721,-39,-38,-3,12805.628,-955.155,-9282.115,4169.095
17.250672,795,1820,-740,-44,-30,-8,12801.842,-955.655,-9288.459,4166.476
17.270691,818,1822,-738,-37,-16,-7,12799.628,-954.449,-9292.363,4164.849
17.290711,809,1823,-772,-25,-2,-11,12798.052,-951.007,-9294.869,4164.886,-162,-91,-90
17.310700,809,1829,-771,-19,15,-9,12797.673,-946.965,-9295.123,4166.406
17.330719,823,1815,-766,-4,25,-6,12798.561,-942.420,-9293.148,4169.114,-162,-91,-90,25515
17.350739,817,1830,-772,8,34,-1,12800.167,-937.871,-9289.430,4173.494
17.370728,795,1802,-764,16,44,5,12802.352,-933.761,-9284.608,4178.439
17.390747,781,1796,-767,23,42,7,12805.059,-930.448,-9279.322,4182.623,-168,-92,-91
17.410736,768,1777,-778,25,32,4,12807.934,-927.392,-9274.008,4186.282
17.430725,783,1785,-747,25,35,3,12810.383,-924.250,-9269.469,4189.537
17.450745,789,1813,-769,22,30,3,12812.084,-920.626,-9266.521,4191.654
17.470764,784,1804,-775,3,24,-3,12812.051,-917.673,-9265.876,4193.826
17.490784,795,1810,-763,-8,16,2,12811.011,-915.124,-9266.555,4196.063,-167,-100,-87
17.510773,793,1829,-749,-10,13,4,12809.702,-913.072,-9267.819,4197.711
17.530762,781,1799,-761,-12,9,-1,12808.806,-911.107,-9269.047,4198.164
17.550812,778,1817,-756,-12,6,-5,12807.823,-909.410,-9270.547,4198.217
17.570801,801,1830,-760,-13,2,-5,12807.669,-907.918,-9271.229,4197.506
17.590790,803,1797,-747,-2,2,-8,12808.585,-907.065,-9270.372,4196.785,-160,-93,-78
17.610809,793,1818,-767,8,3,-7,12810.013,-906.504,-9268.626,4196.406
17.630829,799,1812,-770,13,4,-6,12811.489,-906.315,-9266.695,4196.206
17.650818,814,1825,-779,12,2,-3,12813.167,-906.646,-9264.344,4196.200
17.670807,814,1799,-746,18,3,-2,12814.379,-907.338,-9262.479,4196.466
17.690857,810,1818,-768,11,0,4,12814.965,-908.004,-9261.323,4197.084,-169,-88,-83
17.710846,827,1809,-771,5,2,3,12815.072,-908.132,-9260.839,4197.798
17.730866,809,1807,-764,0,4,2,12815.018,-907.338,-9260.480,4198.926
17.750855,813,1816,-792,-3,6,0,12814.933,-905.890,-9260.234,4200.041
17.770874,781,1800,-755,-4,10,-2,12814.815,-903.897,-9260.288,4200.710
17.790863,799,1799,-751,-8,10,-2,12814.261,-901.855,-9260.717,4201.895,-166,-97,-84
17.810883,789,1804,-756,-7,10,-2,12814.091,-900.133,-9260.737,4202.738
17.830902,774,1812,-769,-1,7,-1,12814.361,-898.728,-9260.216,4203.364,-166,-97,-84,25497
17.850891,798,1805,-759,0,9,0,12814.798,-897.632,-9259.577,4203.673
17.870880,792,1832,-748,3,5,-3,12814.898,-896.653,-9259.517,4203.712
17.890900,780,1829,-755,-3,2,-3,12814.833,-896.133,-9259.877,4203.225,-164,-98,-87
17.910919,766,1833,-732,-3,-1,-3,12814.387,-895.748,-9260.815,4202.601
17.930908,782,1821,-731,-8,-3,-4,12813.808,-895.527,-9262.156,4201.457
17.950928,783,1830,-749,-8,-7,-7,12813.086,-896.109,-9264.037,4199.390
17.970947,799,1826,-762,-11,-17,-7,12812.463,-897.013,-9265.668,4197.496
17.990936,804,1823,-748,-6,-9,-4,12812.221,-897.341,-9265.986,4197.465,-172,-98,-87
18.010956,792,1829,-814,1,0,5,12812.614,-897.671,-9265.383,4197.526
18.030975,771,1824,-816,5,-4,1,12813.392,-898.411,-9264.032,4197.973
18.050964,788,1825,-766,9,3,3,12814.950,-900.192,-9261.274,4198.920
18.070953,807,1769,-723,20,-1,12,12816.723,-902.653,-9258.047,4200.097
18.090973,753,1801,-672,50,-19,3,12819.627,-908.067,-9253.562,4199.950,-153,-91,-83
18.110993,765,1784,-761,11,-4,25,12821.017,-913.484,-9251.846,4198.313
18.130982,854,1768,-854,23,-36,5,12821.611,-918.589,-9252.042,4194.951
18.151001,806,1846,-856,14,-33,-12,12821.745,-921.217,-9252.087,4193.868
18.171021,879,1879,-820,-2,-8,5,12824.178,-921.671,-9248.738,4193.717
18.191040,822,1846,-835,32,3,-3,12826.862,-920.072,-9243.947,4196.423,-166,-97,-82
18.210999,843,1787,-775,35,23,1,12830.595,-920.537,-9237.826,4198.388
18.231018,791,1776,-768,32,10,11,12833.208,-922.181,-9232.483,4201.793
18.251038,833,1725,-745,27,14,18,12836.523,-924.293,-9227.229,4202.743
18.271057,759,1741,-784,31,1,3,12836.755,-924.621,-9225.786,4205.127
18.291046,770,1759,-740,-8,12,7,12836.675,-924.367,-9225.568,4205.906,-169,-93,-92
18.311035,778,1771,-753,-6,0,5,12835.376,-923.903,-9226.990,4206.852
18.331055,790,1820,-748,-15,0,6,12833.803,-922.690,-9229.139,4207.203,-169,-93,-92,25500
18.351135,804,1846,-763,-17,-1,-7,12832.682,-921.250,-9231.883,4204.917
18.371063,833,1891,-793,-23,-10,-10,12830.522,-920.961,-9236.085,4202.344
18.391083,848,1833,-777,-25,-21,-11,12829.373,-923.171,-9239.255,4198.396,-164,-88,-78
18.411072,866,1821,-839,-9,-28,-11,12829.896,-925.505,-9240.139,4194.336
18.431091,870,1813,-810,6,-24,-16,12831.900,-928.064,-9238.975,4190.203
18.451111,863,1797,-819,17,-17,-13,12834.051,-929.234,-9236.423,4188.983
18.471130,881,1740,-810,21,1,-5,12836.790,-928.539,-9232.002,4190.491
18.491120,827,1712,-808,25,24,1,12837.465,-924.068,-9228.802,4196.453,-172,-91,-85
18.511109,800,1722,-783,-4,55,12,12834.960,-914.241,-9228.470,4206.985
18.531128,766,1750,-726,-42,89,15,12829.812,-899.430,-9231.630,4218.933
18.551148,724,1776,-724,-66,99,7,12821.722,-881.049,-9238.896,4231.479
18.571137,716,1784,-654,-97,111,8,12811.471,-860.215,-9249.110,4244.482
18.591156,687,1822,-669,-114,118,1,12799.358,-839.182,-9262.960,4255.021,-172,-93,-83
18.611176,632,1857,-619,-141,95,-9,12786.440,-820.507,-9279.175,4262.165
18.631165,658,1876,-635,-141,65,-12,12774.710,-805.974,-9295.396,4264.767
18.651184,635,1896,-593,-123,28,-22,12766.789,-794.036,-9308.795,4261.499
18.671173,629,1940,-578,-81,9,-40,12762.165,-787.465,-9318.975,4254.314
18.691193,670,1963,-556,-50,-32,-42,12761.380,-785.832,-9326.837,4239.714,-168,-78,-86
18.711182,695,1974,-555,-13,-76,-64,12763.535,-793.158,-9332.386,4219.605
18.731201,735,2003,-550,16,-125,-60,12767.622,-810.753,-9336.503,4194.717
18.751190,808,2001,-566,43,-183,-50,12772.049,-838.773,-9340.842,4165.973
18.771210,896,1976,-613,63,-242,-36,12776.522,-877.665,-9345.201,4134.351
18.791229,996,1920,-591,72,-299,-11,12780.455,-924.729,-9349.201,4102.769,-162,-93,-76
18.811218,1004,1910,-620,73,-319,6,12781.806,-973.068,-9354.752,4074.631
18.831238,976,1885,-615,63,-299,28,12780.842,-1012.281,-9361.325,4052.946,-162,-93,-76,25519
18.851227,952,1831,-602,21,-222,23,12777.338,-1038.677,-9369.388,4038.662
18.871246,914,1792,-581,-14,-148,16,12772.649,-1056.647,-9378.241,4028.269
18.891235,858,1758,-586,-30,-108,9,12766.039,-1067.073,-9387.789,4024.231,-173,-101,-70
18.911255,808,1736,-566,-52,-55,22,12758.996,-1069.309,-9396.406,4025.864
18.931275,768,1739,-546,-58,5,16,12752.385,-1061.558,-9403.655,4031.932
18.951264,745,1809,-519,-61,63,3,12745.486,-1046.747,-9410.624,4041.347
18.971283,719,1845,-516,-80,99,1,12738.212,-1027.871,-9417.405,4053.312
18.991303,694,1884,-519,-73,113,4,12732.606,-1009.260,-9422.167,4064.520,-170,-89,-75
19.011292,697,1914,-528,-58,106,-3,12728.029,-993.708,-9426.379,4072.912
19.031311,693,1960,-506,-46,76,-3,12724.097,-984.032,-9430.775,4077.369
19.051300,708,1977,-519,-35,32,-2,12720.361,-979.963,-9436.200,4077.458
19.071320,746,1959,-530,-37,-3,-1,12716.152,-980.247,-9443.625,4073.326
19.091309,757,1965,-524,-36,-40,-12,12712.063,-983.096,-9452.160,4065.597,-175,-89,-70
19.111328,796,1955,-545,-37,-60,-17,12708.467,-990.167,-9460.899,4054.781
19.131317,826,1927,-530,-27,-92,-19,12705.579,-1000.977,-9469.024,4042.192
19.151367,832,1928,-545,-14,-102,-15,12702.966,-1014.079,-9475.924,4030.955
19.171356,854,1896,-485,-9,-105,3,12700.735,-1030.177,-9480.809,4022.407
19.191376,849,1886,-514,5,-105,22,12697.452,-1048.246,-9485.915,4016.061,-175,-89,-68
19.211365,851,1871,-504,-3,-105,41,12692.657,-1065.836,-9492.147,4011.859
19.231384,839,1862,-466,-11,-97,44,12687.190,-1082.239,-9498.678,4009.303
19.251373,844,1859,-490,-19,-83,49,12681.704,-1096.435,-9504.654,4008.642
19.271393,831,1842,-466,-18,-68,52,12675.557,-1109.907,-9510.897,4009.566
19.291382,818,1856,-475,-28,-59,55,12668.744,-1120.389,-9517.661,4012.134,-173,-82,-79
19.311401,829,1864,-460,-35,-41,52,12661.620,-1128.394,-9524.403,4016.378
19.331391,841,1883,-461,-38,-24,54,12654.378,-1133.616,-9531.130,4021.768,-173,-82,-79,25521
19.351441,836,1890,-507,-43,-9,45,12647.591,-1135.668,-9537.841,4026.626
19.371430,840,1892,-477,-43,5,31,12641.719,-1135.872,-9543.122,4032.492
19.391419,842,1883,-455,-34,13,31,12637.354,-1135.695,-9546.341,4038.601,-170,-89,-75
19.411438,802,1884,-457,-18,14,35,12633.572,-1135.943,-9548.627,4044.953
19.431458,820,1881,-483,-18,18,33,12629.400,-1136.005,-9551.648,4050.826
19.451447,857,1855,-456,-27,15,28,12624.612,-1135.756,-9555.703,4056.254
19.471466,821,1879,-491,-32,14,26,12620.246,-1133.493,-9559.240,4062.137
19.491455,833,1875,-503,-29,29,25,12616.228,-1129.727,-9561.983,4069.204,-168,-97,-70
19.511475,810,1874,-533,-27,40,25,12612.360,-1124.778,-9564.390,4076.902
19.531494,809,1884,-518,-26,44,21,12608.764,-1119.545,-9566.102,4085.437
19.551483,812,1862,-510,-24,53,25,12605.802,-1112.679,-9566.920,4094.531
19.571564,801,1879,-516,-21,62,22,12602.828,-1105.775,-9567.597,4103.963
19.591522,805,1869,-509,-19,59,24,12599.630,-1099.619,-9568.623,4113.033,-169,-86,-74
19.611511,804,1857,-510,-23,54,27,12595.989,-1094.213,-9570.026,4122.354
19.631500,809,1848,-504,-26,50,31,12591.841,-1089.211,-9572.115,4131.491
19.651520,822,1870,-537,-29,44,31,12586.885,-1084.480,-9575.525,4139.924
19.671539,848,1875,-535,-38,42,29,12581.613,-1080.205,-9579.297,4148.335
19.691528,846,1869,-505,-38,40,31,12576.509,-1076.989,-9582.716,4156.742,-170,-89,-70
19.711548,837,1875,-502,-31,31,36,12571.233,-1076.090,-9586.438,4164.345
19.731537,854,1836,-500,-32,17,37,12565.512,-1076.200,-9590.839,4171.444
19.751557,896,1820,-518,-35,14,43,12559.060,-1076.404,-9596.062,4178.804
19.771576,870,1820,-504,-42,19,38,12552.272,-1076.439,-9601.259,4187.241
19.791565,870,1820,-527,-48,21,45,12544.349,-1074.679,-9607.441,4197.246,-166,-87,-75
19.811585,879,1853,-519,-60,33,49,12536.363,-1070.875,-9613.020,4209.288
19.831604,881,1860,-540,-52,58,50,12530.054,-1065.608,-9615.757,4223.134,-166,-87,-75,25509
19.851593,878,1843,-568,-32,66,46,12525.803,-1058.511,-9615.957,4237.051
19.871613,911,1839,-645,-20,79,40,12523.310,-1050.557,-9613.550,4251.838
19.891632,972,1873,-685,-7,95,42,12522.816,-1041.806,-9607.704,4268.625,-163,-87,-70
19.911621,953,1888,-740,10,108,51,12523.489,-1031.433,-9597.774,4291.449
19.931610,930,1872,-797,26,153,70,12526.798,-1016.644,-9582.465,4319.441
19.951630,919,1866,-816,44,198,74,12531.872,-998.362,-9562.832,4352.370
19.971619,836,1808,-805,61,234,82,12538.105,-977.489,-9539.903,4389.319
19.991638,798,1759,-861,76,256,92,12546.131,-954.541,-9513.798,4427.926,-163,-87,-66
20.011658,792,1720,-829,92,271,88,12555.147,-931.803,-9485.936,4466.819
20.031647,749,1723,-804,95,268,96,12563.167,-909.172,-9459.135,4505.600
20.051666,754,1747,-852,83,265,88,12569.761,-885.403,-9435.164,4542.055
20.071655,729,1735,-849,68,256,77,12575.907,-861.825,-9413.030,4575.381
20.091675,728,1764,-911,63,242,58,12582.757,-838.591,-9392.115,4603.760,-160,-88,-60
20.111664,747,1776,-914,64,216,39,12590.466,-817.221,-9371.867,4627.727
20.131683,733,1740,-924,62,189,33,12597.900,-799.522,-9353.359,4647.988
20.151703,786,1728,-928,64,160,26,12605.411,-787.239,-9336.296,4663.998
20.171692,774,1704,-896,66,112,27,12610.991,-779.502,-9322.879,4677.033
20.191712,801,1709,-842,46,82,29,12614.444,-775.572,-9313.562,4686.926,-161,-92,-79
20.211701,834,1736,-854,28,55,32,12615.315,-774.630,-9308.529,4694.732
20.231751,861,1733,-825,13,25,31,12613.908,-775.945,-9307.130,4701.063
20.251740,882,1728,-802,-8,12,34,12611.431,-777.376,-9307.433,4706.868
20.271729,909,1731,-814,-20,10,30,12605.790,-778.470,-9311.925,4712.910
20.291748,878,1738,-832,-53,6,37,12596.792,-777.341,-9320.014,4721.159,-160,-95,-78
20.311737,890,1745,-790,-75,15,38,12589.168,-774.270,-9326.803,4728.588
20.331757,893,1722,-778,-63,30,31,12580.579,-769.150,-9334.009,4738.055,-160,-95,-78,25515
20.351776,883,1750,-775,-81,41,35,12571.102,-761.343,-9341.760,4749.177
20.371765,902,1763,-780,-87,59,36,12562.073,-751.522,-9348.181,4761.984
20.391785,896,1759,-737,-77,75,34,12552.651,-741.157,-9354.483,4776.057,-157,-95,-87
20.411774,882,1767,-770,-87,78,46,12542.262,-730.989,-9361.442,4791.259
20.431793,904,1801,-807,-86,80,46,12531.915,-719.199,-9367.678,4807.899
20.451813,869,1792,-743,-87,96,49,12522.448,-705.997,-9372.496,4825.104
20.471802,875,1800,-750,-77,105,42,12513.276,-691.794,-9376.565,4843.016
20.491821,856,1834,-732,-76,111,46,12504.198,-676.771,-9380.741,4860.467,-157,-91,-83
20.511841,857,1819,-770,-79,112,39,12494.915,-661.077,-9385.304,4877.661
20.531860,843,1845,-825,-79,116,35,12486.749,-643.969,-9388.333,4895.002
20.551849,833,1839,-817,-69,126,29,12480.473,-626.959,-9388.734,4912.416
20.571839,811,1818,-789,-52,128,30,12475.422,-609.826,-9387.434,4929.855
20.591858,804,1820,-787,-43,129,28,12471.722,-594.009,-9384.313,4947.060,-150,-102,-92
20.611847,773,1805,-777,-24,128,35,12469.329,-579.638,-9379.049,4964.746
20.631867,770,1778,-752,-14,126,38,12467.348,-566.483,-9373.266,4982.132
20.651856,786,1752,-784,-12,117,40,12464.507,-554.842,-9368.942,4998.656
20.671875,800,1743,-784,-20,105,43,12461.192,-544.095,-9365.541,5014.452
20.691864,796,1755,-778,-20,96,41,12457.672,-534.207,-9362.809,5029.340,-148,-93,-80
20.711914,787,1756,-793,-24,91,38,12453.683,-525.652,-9361.367,5042.788
20.731903,825,1753,-743,-32,74,39,12449.140,-518.604,-9361.282,5054.877
20.751923,827,1749,-697,-35,60,40,12443.466,-514.127,-9363.365,5065.435
20.771912,807,1766,-677,-42,40,43,12436.422,-511.717,-9368.084,5074.248
20.791992,829,1770,-665,-55,23,39,12427.271,-510.495,-9377.282,5079.799,-148,-91,-92
20.811920,822,1788,-653,-85,-8,33,12415.184,-510.687,-9391.758,5082.590
20.831940,829,1787,-638,-107,-28,27,12402.221,-511.763,-9409.361,5081.573,-148,-91,-92,25521
20.851959,861,1798,-637,-120,-51,18,12388.081,-513.072,-9429.917,5077.825
20.871948,857,1809,-606,-137,-64,9,12373.541,-514.813,-9451.606,5072.771
20.891937,906,1838,-603,-136,-63,0,12359.991,-513.948,-9472.561,5066.803,-157,-91,-83
20.911957,933,1826,-601,-140,-45,-15,12346.508,-510.708,-9492.797,5062.130
20.931976,922,1847,-609,-130,-36,-9,12334.343,-507.536,-9510.886,5058.149
20.951965,914,1875,-572,-113,-33,-11,12322.735,-504.241,-9527.580,5055.352
20.971985,923,1856,-561,-110,-25,-2,12311.102,-502.362,-9543.166,5054.484
20.991974,924,1838,-530,-105,-20,9,12298.996,-500.692,-9558.410,5055.316,-153,-98,-83
21.011994,928,1838,-547,-105,-14,16,12286.751,-499.837,-9573.031,5057.512
21.032013,915,1852,-494,-101,-12,28,12274.024,-497.573,-9586.540,5063.046
21.052033,879,1835,-518,-100,15,36,12262.169,-494.075,-9597.206,5071.898
21.072022,888,1869,-479,-88,34,46,12249.897,-488.245,-9607.767,5082.115
21.092041,873,1852,-482,-91,43,45,12236.952,-481.286,-9618.501,5093.647,-161,-97,-79
21.112030,855,1853,-483,-103,57,48,12222.678,-472.281,-9630.228,5106.588
21.132050,886,1867,-456,-111,61,45,12207.512,-462.364,-9643.281,5119.123
21.152069,860,1872,-546,-123,59,48,12191.723,-453.974,-9657.622,5130.455
21.172058,878,1850,-477,-126,33,43,12177.455,-444.495,-9672.217,5137.671
21.192078,837,1895,-501,-129,47,8,12162.505,-428.725,-9686.508,5147.491,-154,-89,-79
21.212067,834,1938,-514,-136,79,10,12148.137,-411.042,-9701.830,5154.003
21.232086,822,1912,-526,-128,89,-3,12136.756,-390.567,-9710.706,5165.679
21.252075,805,1913,-501,-107,112,4,12126.513,-370.221,-9717.635,5178.186
21.272095,822,1889,-515,-94,118,7,12117.858,-352.324,-9722.096,5191.306
21.292114,812,1882,-529,-69,110,15,12110.765,-337.056,-9723.767,5205.724,-155,-98,-76
21.312103,813,1818,-504,-50,108,29,12105.343,-323.659,-9722.693,5221.168
21.332123,825,1833,-512,-28,113,28,12101.143,-311.163,-9720.478,5235.767,-155,-98,-76,25531
21.352112,816,1824,-547,-27,97,29,12096.113,-300.247,-9721.015,5247.018
21.372131,852,1806,-529,-41,76,14,12090.991,-290.011,-9723.380,5255.011
21.392120,855,1803,-558,-49,56,6,12085.059,-280.122,-9728.084,5260.484,-146,-100,-67
21.412140,843,1817,-526,-62,45,-4,12078.090,-270.312,-9736.406,5261.607
21.432129,876,1803,-473,-86,19,-25,12069.767,-261.109,-9749.064,5257.732
21.452149,882,1822,-532,-106,-21,-33,12056.175,-254.252,-9769.303,5251.681
21.472199,885,1803,-505,-161,-33,-28,12039.157,-247.621,-9794.355,5244.371
21.492188,849,1799,-465,-178,-25,-25,12019.012,-239.609,-9821.324,5240.511,-140,-94,-61
21.512177,840,1795,-497,-216,-21,-9,11991.974,-229.551,-9854.049,5241.471
21.532196,797,1805,-372,-249,-17,29,11961.610,-213.358,-9889.323,5245.102
21.552185,811,1856,-370,-307,28,0,11926.055,-189.499,-9931.972,5246.396
21.572266,720,1899,-451,-348,32,-20,11890.567,-163.471,-9975.037,5246.119
21.592194,729,1899,-411,-339,32,-40,11860.182,-133.139,-10013.534,5242.416
21.612213,697,1893,-436,-311,41,-71,11833.647,-102.573,-10046.522,5239.953,-148,-91,-71
21.632202,721,1901,-378,-267,69,-65,11810.489,-72.600,-10073.084,5241.706
21.652222,702,1916,-358,-221,92,-47,11790.126,-41.836,-10094.177,5247.304
21.672302,702,1914,-371,-198,114,-43,11773.794,-10.737,-10110.248,5253.187
21.692230,697,1889,-378,-167,130,-56,11760.350,20.490,-10122.516,5259.642
21.712250,741,1878,-299,-147,135,-56,11747.772,49.874,-10133.753,5265.913,-147,-104,-61
21.732269,757,1845,-311,-141,113,-50,11733.166,74.677,-10146.996,5272.678
21.752258,754,1832,-348,-151,96,-25,11715.861,98.045,-10162.353,5281.192
21.772247,785,1830,-324,-171,96,-9,11695.680,121.120,-10179.961,5291.523
21.792267,827,1867,-302,-184,98,3,11672.604,146.401,-10199.573,5304.058
21.812256,829,1881,-294,-212,121,9,11645.352,173.801,-10221.701,5320.510,-155,-105,-46
21.832276,867,1915,-310,-247,135,27,11614.260,200.778,-10246.464,5339.856,-155,-105,-46,25521
21.852295,865,1924,-292,-270,148,39,11579.329,228.549,-10274.171,5361.319
21.872315,859,1941,-261,-298,135,61,11538.927,260.126,-10306.414,5385.050
21.892304,826,1987,-284,-339,172,63,11493.682,297.068,-10343.706,5408.345
21.912323,811,1962,-218,-400,172,43,11443.354,338.801,-10386.277,5430.980,-146,-93,-53
21.932312,783,1997,-262,-432,176,33,11390.070,386.575,-10431.582,5452.925
21.952332,766,2013,-328,-458,194,20,11337.794,433.894,-10476.059,5473.004
21.972321,745,1998,-314,-429,183,1,11292.827,482.876,-10513.159,5490.701
21.992340,723,1982,-390,-372,212,-24,11257.185,532.492,-10538.208,5511.248
22.012421,687,1889,-367,-296,238,-26,11228.415,585.263,-10552.083,5537.972,-147,-99,-47
22.032349,647,1900,-455,-232,302,-22,11205.061,639.500,-10556.150,5571.424
22.052368,633,1886,-376,-164,352,-20,11196.861,693.952,-10540.790,5610.339
22.072357,662,1839,-304,-28,408,-34,11197.507,747.325,-10512.515,5655.068
22.092377,689,1849,-326,51,427,-15,11201.437,797.839,-10478.955,5702.473
22.112396,693,1884,-296,62,439,-12,11202.826,846.482,-10447.508,5750.232,-149,-115,-36
22.132385,704,1963,-334,32,426,4,11198.941,897.053,-10420.978,5798.073
22.152405,667,1992,-373,-6,420,7,11192.818,946.093,-10398.012,5843.160
22.172424,669,2031,-400,-15,391,5,11189.278,989.734,-10376.862,5880.192
22.192413,728,2035,-481,-7,322,-13,11183.054,1034.751,-10361.788,5910.783
22.212433,776,2061,-564,-69,315,-28,11171.890,1077.226,-10351.244,5942.695,-144,-108,-22
22.232422,805,2066,-605,-71,297,2,11161.828,1113.321,-10338.547,5976.953
22.252442,763,2023,-645,-52,293,35,11151.609,1147.857,-10321.478,6018.850
22.272431,753,1948,-604,-21,333,63,11146.827,1183.023,-10294.516,6066.883
22.292450,726,1924,-602,55,388,61,11146.088,1220.662,-10257.245,6123.648
22.312439,718,1862,-537,86,446,74,11146.935,1260.442,-10213.976,6186.053,-142,-113,-41
22.332459,685,1795,-545,105,481,83,11144.862,1301.806,-10170.569,6252.384,-142,-113,-41,25521
22.352478,637,1776,-556,84,499,103,11139.291,1343.735,-10128.797,6320.876
22.372467,585,1740,-565,77,502,107,11133.640,1389.732,-10084.791,6390.863
22.392487,563,1748,-557,71,534,103,11127.861,1435.955,-10041.724,6458.169
22.412506,531,1760,-574,81,506,91,11122.776,1484.131,-9997.902,6523.695,-146,-112,-44
22.432495,564,1746,-611,59,509,77,11115.587,1530.343,-9957.474,6586.799
22.452515,624,1833,-642,46,486,81,11104.948,1578.654,-9921.779,6646.932
22.472504,581,1871,-580,12,473,79,11091.408,1624.158,-9890.870,6704.395
22.492523,598,1930,-613,-3,430,87,11076.647,1661.756,-9865.501,6756.758
22.512543,586,1962,-696,-16,374,95,11061.039,1695.999,-9847.350,6800.157,-123,-106,-43
22.532532,642,1960,-728,-44,294,81,11046.917,1722.847,-9834.634,6834.678
22.552521,698,1926,-720,-46,232,71,11035.998,1743.314,-9823.493,6863.091
22.572540,728,1885,-673,-19,189,54,11028.641,1754.736,-9813.221,6886.660
22.592560,786,1894,-647,-7,129,66,11020.695,1761.370,-9807.618,6905.644
22.612549,817,1878,-654,-24,96,65,11010.796,1764.967,-9806.477,6922.116,-123,-113,-59
22.632568,814,1823,-639,-42,56,76,10998.456,1767.045,-9811.328,6934.320
22.652558,838,1830,-633,-71,26,63,10983.031,1771.007,-9822.305,6942.213
22.672577,851,1819,-683,-117,19,59,10962.469,1777.378,-9837.873,6951.034
22.692597,905,1807,-588,-160,34,72,10940.254,1788.661,-9853.740,6960.659
22.712586,913,1755,-626,-172,65,42,10916.451,1806.879,-9867.801,6973.393,-129,-114,-67
22.732605,835,1780,-541,-190,111,49,10888.948,1831.639,-9881.944,6989.886
22.752625,807,1767,-552,-217,156,44,10858.651,1864.923,-9894.474,7010.462
22.772644,799,1745,-536,-229,210,36,10826.311,1906.280,-9903.779,7036.168
22.792633,778,1738,-487,-229,261,31,10793.065,1955.628,-9910.473,7064.220
22.812622,722,1782,-494,-247,294,16,10759.135,2010.679,-9914.740,7094.472,-124,-112,-65
22.832642,713,1825,-544,-260,346,2,10726.404,2067.229,-9915.505,7126.640,-124,-112,-65,25509
22.852661,740,1865,-541,-220,350,0,10697.654,2125.402,-9910.215,7160.024
22.872650,704,1894,-542,-187,374,-8,10671.690,2182.999,-9898.832,7197.091
22.892670,713,1924,-495,-157,387,-2,10648.365,2239.535,-9885.419,7232.615
22.912659,724,1986,-536,-145,374,-20,10626.938,2293.783,-9872.806,7264.288,-123,-127,-68
22.932678,733,1997,-521,-139,349,-27,10607.169,2341.989,-9860.795,7294.052
22.952698,732,1953,-550,-127,315,-8,10588.055,2385.561,-9848.815,7323.828
22.972687,784,1969,-626,-122,306,-1,10565.153,2430.598,-9841.258,7352.197
22.992706,768,1998,-515,-145,305,3,10540.945,2476.219,-9834.416,7380.819
23.012695,718,1987,-607,-159,310,4,10516.951,2523.135,-9826.126,7410.142,-109,-108,-68
23.032715,690,1968,-591,-142,315,-2,10495.769,2570.400,-9813.452,7440.663
23.052735,669,1909,-567,-117,332,-10,10477.698,2615.912,-9795.534,7473.808
23.072724,657,1859,-580,-80,350,1,10460.535,2661.178,-9774.257,7509.638
23.092713,641,1824,-564,-69,364,4,10443.428,2706.275,-9751.377,7546.983
23.112732,594,1800,-582,-60,367,14,10425.192,2749.712,-9727.728,7586.908,-123,-108,-61
23.132752,606,1792,-595,-56,373,28,10407.168,2792.488,-9702.957,7627.642
23.152771,573,1809,-560,-45,378,28,10389.741,2835.304,-9676.241,7669.427
23.172760,590,1826,-562,-30,377,29,10373.514,2877.464,-9648.147,7710.973
23.192780,595,1842,-528,-28,382,27,10358.031,2919.990,-9619.399,7751.610
23.212769,563,1856,-550,-24,382,16,10340.912,2959.887,-9593.555,7791.260,-121,-113,-75
23.232849,592,1899,-570,-39,353,36,10321.913,2998.738,-9571.402,7828.753
23.252777,609,1927,-564,-60,338,37,10301.919,3036.141,-9551.411,7865.005
23.272797,601,1961,-587,-53,323,46,10282.355,3070.362,-9532.263,7900.471
23.292816,599,1952,-580,-57,300,51,10263.116,3102.279,-9516.252,7932.256
23.312805,604,1934,-611,-62,271,46,10245.662,3132.276,-9500.616,7961.720,-126,-108,-86
23.332825,637,1921,-660,-48,260,40,10230.499,3158.804,-9483.896,7990.618,-126,-108,-86,25529
23.352814,678,1912,-666,-29,247,40,10217.888,3182.930,-9464.034,8020.673
23.372833,736,1936,-686,-2,253,45,10203.283,3205.178,-9445.593,8052.083
23.392853,711,1901,-700,-23,251,67,10185.878,3226.580,-9429.152,8084.775
23.412842,699,1882,-668,-27,247,76,10169.841,3247.970,-9410.064,8118.568,-122,-114,-74
23.432861,666,1878,-603,-7,268,71,10153.511,3272.385,-9387.743,8154.964
23.452850,633,1853,-617,-2,291,68,10137.000,3297.775,-9364.884,8191.476
23.472870,629,1870,-572,-18,289,66,10117.612,3325.019,-9346.000,8225.928
23.492859,620,1893,-599,-48,279,69,10094.638,3354.689,-9332.042,8257.890
23.512879,645,1898,-694,-87,273,61,10072.807,3385.332,-9319.319,8286.362,-113,-119,-85
23.532898,660,1922,-714,-81,259,44,10052.007,3417.129,-9304.754,8314.888
23.552887,713,1925,-766,-70,275,35,10031.003,3449.282,-9288.706,8344.866
23.572907,760,2002,-802,-77,284,50,10007.190,3478.597,-9274.942,8376.538
23.592896,731,2042,-840,-86,272,73,9983.200,3504.980,-9258.912,8411.826
23.612915,728,2026,-869,-52,284,94,9959.899,3529.805,-9237.990,8451.973,-107,-108,-91
23.632904,632,1922,-757,-27,312,107,9940.828,3550.580,-9207.020,8499.384
23.652924,660,1842,-704,65,336,124,9924.345,3566.735,-9174.900,8546.485
23.672943,654,1796,-720,55,319,115,9905.570,3583.088,-9147.876,8590.282
23.692932,616,1760,-701,30,289,121,9887.766,3597.595,-9122.013,8632.132
23.712952,612,1735,-714,35,270,120,9870.666,3611.830,-9098.731,8670.245,-111,-118,-88
23.732971,639,1712,-723,23,258,98,9854.157,3626.679,-9076.883,8705.653
23.752960,694,1734,-765,6,241,96,9837.038,3640.411,-9059.698,8737.126
23.772980,738,1781,-751,-13,201,90,9819.449,3654.171,-9048.247,8762.997
23.792969,766,1834,-755,-37,170,74,9804.124,3665.542,-9038.969,8784.954
23.812988,813,1830,-769,-35,154,64,9788.589,3677.148,-9031.631,8804.952,-104,-113,-100,25529
23.833008,860,1830,-778,-48,133,65,9772.358,3687.967,-9026.847,8823.342
23.852997,873,1795,-785,-59,125,69,9753.776,3698.130,-9026.015,8840.484
23.873016,878,1750,-730,-85,108,77,9730.545,3709.725,-9029.016,8858.144
23.893005,860,1752,-691,-109,124,93,9704.974,3724.184,-9031.554,8877.522
23.913025,843,1743,-667,-119,135,97,9677.052,3744.356,-9033.605,8897.408,-107,-127,-107
23.933014,823,1737,-681,-133,160,87,9646.161,3771.684,-9033.416,8919.574
23.953034,829,1770,-651,-159,217,71,9612.818,3806.106,-9032.469,8941.879
23.973053,805,1859,-681,-194,243,56,9577.709,3848.839,-9031.862,8961.853
23.993042,818,1866,-696,-225,262,21,9543.319,3891.684,-9030.318,8981.572
24.013062,834,1879,-684,-222,258,31,9509.647,3936.340,-9028.649,8999.486,-101,-121,-101
24.033051,835,1917,-749,-224,251,19,9475.422,3980.593,-9027.378,9017.380
24.053070,826,1902,-789,-228,256,17,9438.623,4027.754,-9025.746,9036.643
24.073090,760,1927,-768,-241,281,20,9401.283,4079.484,-9020.301,9057.775
24.093079,695,1903,-767,-234,312,17,9365.880,4130.833,-9010.152,9081.249
24.113068,651,1853,-716,-203,330,3,9336.216,4183.199,-8991.172,9106.600,-107,-118,-114
24.133087,630,1816,-717,-147,362,-27,9311.494,4234.795,-8965.667,9133.172
24.153107,591,1766,-699,-120,369,-42,9288.580,4286.104,-8938.352,9159.306
24.173096,574,1743,-665,-117,366,-47,9266.900,4336.389,-8910.168,9185.021
24.193115,542,1734,-670,-93,363,-50,9246.036,4385.548,-8880.352,9211.545
24.213104,523,1728,-702,-91,366,-46,9225.683,4434.456,-8850.467,9237.263,-98,-114,-112
24.233124,545,1786,-729,-91,362,-44,9204.487,4482.490,-8819.857,9264.462
24.253143,563,1852,-772,-85,375,-34,9180.988,4531.453,-8787.868,9294.310
24.273132,596,1940,-829,-92,394,-22,9154.938,4579.773,-8755.599,9326.720
24.293152,630,2020,-907,-87,398,-2,9127.889,4625.436,-8720.929,9363.109
24.313172,607,2066,-919,-64,413,17,9104.281,4664.769,-8682.704,9402.025,-101,-110,-112
24.333161,590,2121,-971,-9,395,29,9082.339,4698.693,-8644.012,9441.922,-101,-110,-112,25531
24.353180,564,2119,-999,4,381,32,9064.791,4728.026,-8603.906,9480.694
24.373200,552,2047,-1036,44,362,26,9053.423,4749.009,-8562.036,9518.898
24.393189,556,2023,-1040,102,318,25,9048.368,4764.900,-8516.129,9556.869
24.413208,568,1990,-1041,119,326,22,9042.011,4779.270,-8468.433,9598.004,-108,-114,-124
24.433197,517,1904,-1044,137,333,37,9034.509,4788.873,-8420.778,9642.108
24.453278,521,1811,-1050,169,304,58,9031.961,4789.040,-8374.557,9684.575
24.473236,552,1765,-1080,208,271,59,9031.960,4784.143,-8329.267,9725.966
24.493225,543,1744,-1068,202,249,76,9028.053,4778.407,-8289.500,9766.304
24.513214,543,1712,-1131,179,224,98,9023.156,4767.675,-8254.389,9805.734,-102,-115,-127
24.533234,570,1720,-1107,191,185,118,9020.345,4751.823,-8222.351,9842.861
24.553253,627,1704,-1121,179,153,120,9016.519,4732.566,-8197.025,9876.711
24.573273,667,1733,-1207,163,116,132,9011.145,4715.479,-8174.231,9908.626
24.593262,723,1731,-1262,129,120,123,9004.244,4698.600,-8157.448,9936.710
24.613281,764,1758,-1289,108,79,124,8998.373,4683.364,-8142.156,9961.732,-100,-115,-150
24.633270,765,1794,-1318,89,79,115,8991.887,4669.134,-8128.345,9985.518
24.653259,825,1809,-1293,82,76,103,8988.093,4650.188,-8116.131,10007.686
24.673279,848,1767,-1215,113,34,107,8986.190,4628.196,-8108.983,10025.368
24.693298,850,1753,-1220,84,0,101,8983.128,4608.943,-8108.102,10037.687
24.713287,895,1690,-1115,69,-43,92,8984.407,4583.687,-8111.620,10045.262,-105,-121,-158
24.733307,918,1667,-1086,74,-82,79,8984.322,4566.331,-8117.557,10048.446
24.753296,918,1628,-1158,1,-61,52,8983.967,4549.999,-8126.083,10049.280
24.773316,932,1578,-1140,24,-95,48,8986.052,4531.821,-8136.949,10046.838
24.793335,915,1562,-1088,12,-115,34,8988.576,4517.738,-8148.765,10041.344
24.813324,921,1550,-1103,-35,-103,17,8986.380,4509.685,-8165.502,10033.330,-104,-118,-173
24.833344,981,1556,-1153,-78,-94,10,8979.198,4510.451,-8182.803,10025.318,-104,-118,-173,25519
24.853363,948,1634,-1120,-124,-60,12,8966.399,4521.225,-8197.505,10019.908
24.873352,914,1638,-1122,-169,5,-1,8950.951,4537.802,-8207.878,10017.735
24.893372,856,1711,-1106,-155,51,0,8931.670,4563.288,-8213.500,10018.758
24.913391,796,1743,-1101,-190,111,-4,8908.324,4596.618,-8215.722,10022.485,-113,-119,-167
24.933380,793,1800,-1124,-204,153,-9,8884.627,4633.678,-8215.340,10026.766
24.953400,747,1833,-1102,-211,166,-22,8860.652,4673.333,-8212.831,10031.632
24.973389,689,1871,-1051,-206,187,-25,8837.424,4714.401,-8205.746,10038.702
24.993408,625,1858,-1055,-188,214,-34,8815.861,4755.288,-8195.446,10046.787
25.013397,588,1875,-1055,-166,219,-37,8799.413,4792.755,-8182.214,10054.185,-105,-124,-156
25.033417,542,1840,-1026,-127,194,-55,8787.319,4825.189,-8168.573,10060.339
25.053406,525,1804,-977,-101,166,-50,8779.320,4850.877,-8155.151,10065.857
25.073425,519,1803,-971,-56,133,-42,8773.772,4869.664,-8144.267,10070.433
25.093445,515,1823,-935,-50,93,-34,8770.968,4881.928,-8138.661,10071.471
25.113464,565,1827,-959,-45,38,-25,8770.891,4886.426,-8138.255,10069.685,-111,-123,-164
25.133453,628,1837,-975,-23,-17,-14,8773.668,4883.633,-8142.204,10065.427
25.153443,683,1833,-929,-9,-59,-5,8777.679,4875.363,-8150.082,10059.562
25.173462,715,1834,-893,-4,-87,5,8781.266,4864.385,-8162.420,10051.738
25.193451,712,1788,-878,-16,-122,14,8785.165,4851.028,-8181.019,10039.659
25.213471,730,1787,-827,-36,-166,12,8789.500,4836.363,-8206.115,10022.445,-97,-125,-159
25.233490,736,1769,-818,-59,-202,11,8793.440,4821.402,-8235.734,10001.880
25.253479,751,1765,-810,-74,-221,7,8797.365,4806.121,-8268.126,9979.032
25.273499,789,1751,-825,-94,-237,11,8799.284,4792.384,-8303.620,9954.445
25.293518,824,1762,-819,-113,-241,9,8798.968,4780.740,-8339.870,9929.989
25.313507,856,1811,-832,-121,-226,11,8795.753,4771.895,-8373.696,9908.602,-114,-123,-161
25.333527,891,1825,-767,-131,-189,22,8790.540,4765.358,-8404.287,9890.458,-114,-123,-161,25509
25.353516,805,1804,-634,-124,-154,21,8782.651,4761.784,-8431.045,9876.404
25.373535,783,1772,-573,-118,-129,42,8773.294,4755.857,-8458.971,9863.690
25.393524,717,1708,-471,-120,-151,55,8763.657,4748.602,-8490.777,9848.412
25.413544,677,1676,-370,-116,-179,64,8754.858,4740.491,-8525.641,9830.009,-105,-121,-153
25.433563,667,1744,-413,-150,-181,43,8743.246,4736.492,-8567.107,9806.192
25.453552,661,1825,-368,-180,-223,49,8733.176,4728.010,-8615.615,9776.715
25.473572,690,1841,-342,-227,-267,30,8722.622,4722.260,-8669.111,9741.564
25.493561,794,1933,-330,-213,-307,38,8715.365,4724.934,-8721.895,9699.556
25.513580,943,2111,-550,-317,-198,-97,8699.263,4757.635,-8770.915,9653.714,-97,-113,-146
25.533600,1074,2212,-785,-392,-195,-101,8678.772,4777.909,-8830.221,9607.971
25.553589,1080,2291,-950,-381,-273,-5,8658.115,4780.935,-8886.686,9572.979
25.573609,1062,2231,-882,-279,-198,55,8641.288,4788.941,-8905.632,9566.573
25.593628,898,2153,-750,-68,40,32,8642.859,4771.933,-8888.152,9589.882
25.613617,914,1895,-551,261,90,103,8660.761,4731.735,-8845.696,9632.807,-97,-118,-116
25.633637,838,1797,-536,418,129,113,8675.980,4694.923,-8804.175,9675.071
25.653626,770,1743,-526,320,141,113,8680.926,4672.826,-8765.880,9716.017
25.673706,795,1741,-611,252,190,111,8685.065,4652.877,-8725.669,9757.997
25.693634,790,1744,-675,281,213,90,8691.102,4636.596,-8680.262,9800.776
25.713654,795,1770,-788,275,236,71,8695.706,4624.293,-8634.297,9843.016,-96,-112,-110
25.733643,822,1820,-916,252,232,65,8699.938,4612.836,-8589.243,9883.985
25.753662,836,1800,-1039,242,235,69,8705.276,4598.725,-8542.839,9925.987
25.773682,833,1787,-1079,270,224,73,8712.163,4583.504,-8495.618,9967.428
25.793701,818,1819,-1092,275,215,62,8721.718,4566.640,-8449.086,10006.288
25.813690,805,1761,-964,275,199,55,8731.950,4547.573,-8404.515,10043.515,-100,-118,-111
25.833679,830,1730,-949,273,187,55,8743.873,4526.237,-8363.160,10077.244,-100,-118,-111,25519
25.853729,834,1685,-976,267,145,46,8754.330,4509.811,-8326.891,10105.525
25.873718,825,1658,-947,209,133,32,8760.779,4497.015,-8297.459,10129.817
25.893707,812,1656,-1007,163,120,30,8765.717,4485.865,-8271.474,10151.718
25.913727,812,1662,-1034,153,106,31,8772.945,4474.435,-8246.262,10171.010,-100,-113,-125
25.933746,845,1689,-1024,157,93,16,8780.556,4463.610,-8222.052,10188.783
25.953735,842,1681,-1092,140,93,9,8786.680,4455.261,-8200.531,10204.490
25.973755,838,1692,-1071,120,78,11,8792.302,4446.536,-8181.541,10218.687
25.993744,844,1695,-1103,108,66,8,8798.588,4438.610,-8164.349,10230.465
26.013764,825,1708,-1079,97,54,-2,8803.892,4432.023,-8150.162,10240.065,-96,-129,-144
26.033753,823,1677,-1044,69,43,2,8806.750,4427.900,-8139.850,10247.591
26.053772,829,1667,-1068,42,36,0,8807.477,4426.274,-8133.595,10252.634
26.073792,818,1685,-1078,12,24,1,8806.901,4426.811,-8130.568,10255.297
26.093781,831,1699,-1081,-14,13,-6,8806.085,4428.959,-8129.985,10255.532
26.113800,836,1707,-1070,-27,4,-12,8804.823,4431.804,-8131.386,10254.276,-93,-127,-157
26.133789,832,1726,-1047,-39,-5,-14,8803.874,4434.817,-8133.454,10252.148
26.153809,852,1727,-1048,-37,-6,-15,8803.068,4437.459,-8135.803,10249.834
26.173828,840,1744,-962,-35,-5,-18,8802.263,4440.345,-8138.055,10247.486
26.193817,821,1739,-963,-38,-7,-20,8801.774,4443.498,-8141.438,10243.852
26.213837,814,1749,-923,-39,-19,-22,8801.139,4446.741,-8146.689,10238.815,-101,-119,-151
26.233826,794,1712,-938,-53,-31,-19,8799.948,4450.565,-8155.093,10231.484
26.253845,800,1736,-928,-70,-44,-23,8797.706,4456.293,-8166.618,10221.721
26.273865,830,1746,-958,-95,-52,-30,8794.998,4463.933,-8179.404,10210.489
26.293854,854,1785,-990,-102,-48,-36,8792.690,4472.289,-8190.359,10200.033
26.313873,859,1799,-1025,-90,-36,-39,8791.227,4480.137,-8197.257,10192.306,-95,-118,-161
26.333862,859,1832,-1037,-66,-13,-35,8790.903,4485.434,-8199.165,10188.720,-95,-118,-161,25525
26.353882,883,1812,-1007,-31,0,-25,8790.722,4488.181,-8197.876,10188.704
26.373901,862,1832,-1024,-11,19,-13,8790.797,4489.668,-8193.754,10191.300
26.393891,859,1818,-1037,8,29,-9,8791.415,4489.192,-8185.683,10197.461
26.413910,847,1790,-1077,35,47,1,8793.735,4485.996,-8173.057,10206.990,-97,-115,-155
26.433899,830,1775,-1114,71,59,6,8797.366,4479.874,-8157.905,10218.664
26.453919,822,1754,-1120,91,59,10,8801.513,4472.252,-8141.097,10231.828
26.473938,814,1700,-1132,98,67,15,8805.476,4464.755,-8122.286,10246.631
26.493958,836,1695,-1155,102,81,16,8808.820,4458.439,-8102.314,10262.307
26.513947,852,1696,-1173,100,90,16,8811.300,4453.369,-8082.093,10278.312,-103,-117,-165
26.533936,823,1689,-1186,90,97,16,8812.123,4450.997,-8062.231,10294.220
26.553955,809,1702,-1163,72,101,16,8812.274,4448.488,-8044.055,10309.383
26.573944,819,1696,-1180,69,96,16,8812.169,4446.207,-8027.050,10323.702
26.593964,801,1685,-1176,62,89,18,8811.972,4444.363,-8011.484,10336.747
26.613983,788,1673,-1235,52,79,13,8811.674,4443.702,-7996.951,10348.532,-93,-115,-171
26.633972,801,1679,-1228,44,76,8,8811.674,4443.355,-7983.625,10358.965
26.653992,781,1670,-1214,39,68,5,8811.811,4442.886,-7970.742,10368.965
26.673981,795,1648,-1239,35,72,1,8813.015,4441.223,-7958.165,10378.311
26.694000,797,1662,-1184,47,55,4,8814.904,4438.933,-7946.629,10386.522
26.714020,792,1667,-1193,41,47,-2,8817.608,4435.508,-7936.218,10393.649,-102,-106,-175
26.734009,839,1680,-1203,45,32,0,8820.724,4430.928,-7928.038,10399.199
26.754028,863,1657,-1201,40,15,0,8824.075,4424.649,-7922.328,10403.381
26.774048,918,1651,-1212,34,-2,1,8826.625,4417.767,-7919.397,10406.373
26.794037,919,1677,-1203,22,-9,3,8827.801,4411.772,-7918.148,10408.869
26.814057,915,1665,-1169,8,-9,9,8826.916,4406.505,-7918.518,10411.569,-102,-113,-184
26.834046,902,1657,-1166,0,-10,16,8825.960,4401.971,-7919.824,10413.303,-102,-113,-184,25525
26.854065,871,1624,-1142,-5,-17,10,8825.428,4398.249,-7921.675,10413.920
26.874054,900,1584,-1106,-9,-20,4,8826.157,4393.602,-7924.427,10413.170
26.894135,963,1592,-1134,-5,-32,-1,8826.025,4390.659,-7927.236,10412.385
26.914063,987,1653,-1182,-29,-10,-3,8820.607,4395.171,-7928.570,10414.056,-104,-108,-184
26.934082,993,1698,-1230,-58,42,-2,8811.592,4404.616,-7925.109,10420.330
26.954102,1010,1719,-1239,-57,86,10,8799.824,4417.326,-7918.645,10429.804
26.974091,970,1703,-1262,-65,117,16,8785.265,4434.969,-7909.393,10441.605
26.994110,887,1679,-1224,-82,153,11,8770.151,4455.558,-7896.522,10455.277
27.014130,908,1658,-1181,-72,176,8,8756.408,4475.229,-7882.431,10469.019,-108,-102,-188
27.034119,841,1643,-1160,-64,170,5,8740.684,4498.335,-7865.953,10484.637
27.054108,826,1622,-1136,-72,206,7,8724.102,4522.799,-7846.290,10502.642
27.074127,800,1628,-1075,-64,225,12,8702.384,4550.887,-7828.133,10522.058
27.094147,756,1635,-1051,-114,246,37,8672.228,4585.868,-7814.381,10541.971
27.114136,723,1671,-1025,-166,252,48,8640.544,4625.014,-7805.618,10557.367,-105,-95,-195
27.134155,728,1760,-1085,-209,226,31,8609.039,4666.279,-7805.228,10565.231
27.154144,762,1808,-1075,-251,178,20,8580.677,4705.162,-7807.933,10569.061
27.174164,727,1829,-1064,-223,156,7,8556.605,4740.116,-7806.824,10573.776
27.194153,708,1849,-1094,-175,160,0,8537.333,4770.619,-7802.074,10579.140
27.214172,714,1898,-1092,-139,145,-7,8522.772,4795.010,-7796.518,10583.948,-108,-100,-197
27.234192,780,1903,-1124,-109,114,-7,8511.256,4812.175,-7790.986,10589.497
27.254212,762,1832,-1147,-61,95,6,8503.706,4819.229,-7782.554,10598.552
27.274201,835,1748,-1151,6,76,22,8500.246,4817.059,-7774.823,10607.984
27.294220,879,1722,-1200,23,33,33,8497.241,4810.827,-7770.069,10616.699
27.314209,896,1693,-1200,38,19,35,8496.242,4801.027,-7763.324,10626.864,-103,-84,-195
27.334229,878,1637,-1147,61,29,42,8495.863,4789.107,-7752.655,10640.326,-103,-84,-195,25529
27.354248,874,1607,-1093,99,44,45,8498.599,4772.486,-7737.665,10656.508
27.374237,962,1578,-1116,133,43,50,8501.350,4755.203,-7721.907,10673.457
27.394226,1026,1576,-1099,117,50,53,8498.228,4742.916,-7709.769,10690.171
27.414246,1027,1588,-1138,62,65,65,8489.596,4735.566,-7700.544,10706.923,-108,-86,-197
27.434265,1062,1624,-1206,36,78,71,8478.398,4731.410,-7692.232,10723.597
27.454285,1046,1617,-1223,10,87,72,8464.584,4731.060,-7685.715,10739.325
27.474274,1022,1613,-1185,-17,88,68,8449.578,4733.823,-7680.357,10753.748
27.494263,1013,1584,-1145,-34,94,64,8434.508,4738.981,-7674.325,10767.604
27.514282,1013,1604,-1202,-37,103,55,8418.901,4748.286,-7667.069,10780.880,-102,-97,-203
27.534302,1008,1582,-1141,-55,126,40,8403.116,4762.763,-7655.485,10795.031
27.554291,960,1616,-1133,-54,172,24,8384.545,4781.290,-7638.929,10812.995
27.574310,907,1611,-1129,-62,212,29,8362.560,4805.989,-7617.899,10833.886
27.594299,878,1616,-1164,-79,265,31,8336.707,4835.486,-7592.975,10858.155
27.614319,820,1644,-1170,-81,293,39,8309.934,4866.507,-7564.807,10884.449,-108,-91,-220
27.634339,780,1656,-1195,-76,318,39,8282.286,4897.689,-7532.580,10913.846
27.654328,771,1704,-1227,-53,344,47,8255.022,4927.372,-7495.690,10946.491
27.674347,835,1650,-1236,-29,358,53,8230.054,4954.437,-7456.875,10979.535
27.694367,776,1680,-1269,-12,350,46,8203.992,4980.857,-7417.569,11013.659
27.714356,839,1686,-1316,-15,358,54,8180.290,5007.062,-7378.538,11045.578,-115,-79,-222
27.734345,850,1704,-1269,-11,333,39,8156.701,5030.955,-7342.463,11076.163
27.754364,835,1748,-1246,-22,324,51,8131.493,5052.627,-7311.325,11105.392
27.774384,816,1749,-1091,-26,280,67,8107.021,5071.285,-7286.789,11130.876
27.794403,789,1743,-1105,-40,241,70,8083.216,5087.867,-7267.425,11153.259
27.814392,772,1675,-1097,-39,206,76,8058.736,5102.239,-7253.618,11173.378,-113,-76,-231
27.834412,788,1635,-1103,-59,176,82,8036.484,5114.119,-7242.370,11191.255,-113,-76,-231,25521
27.854401,849,1567,-1245,-37,147,81,8016.829,5120.419,-7231.785,11209.303
27.874390,894,1596,-1278,-42,141,75,7995.473,5134.474,-7218.836,11226.460
27.894409,894,1658,-1239,-70,188,62,7969.217,5152.950,-7200.160,11248.636
27.914429,921,1748,-1293,-57,247,79,7939.108,5171.951,-7176.009,11276.604,-117,-81,-242
27.934418,890,1654,-1239,-48,283,102,7905.136,5189.609,-7149.868,11308.917
27.954437,803,1649,-1351,-21,287,133,7870.006,5201.224,-7122.087,11345.553
27.974457,894,1571,-1251,-5,293,154,7835.116,5210.666,-7097.145,11380.944
27.994476,854,1556,-1277,-22,274,160,7793.005,5223.548,-7074.710,11417.859
28.014465,865,1591,-1335,-48,299,194,7747.677,5238.983,-7052.729,11455.173,-111,-87,-248
28.034454,835,1634,-1263,-83,319,188,7697.884,5258.877,-7030.035,11493.512
28.054474,751,1649,-1182,-90,323,210,7645.153,5279.890,-7013.265,11529.264
28.074494,694,1662,-1016,-139,288,219,7591.256,5304.400,-7006.705,11557.581
28.094483,694,1642,-989,-181,237,212,7542.776,5319.512,-7009.708,11580.533
28.114563,684,1634,-926,-133,127,218,7504.001,5324.294,-7020.226,11597.142,-122,-72,-261
28.134522,729,1623,-913,-106,56,194,7472.425,5321.293,-7036.361,11609.123
28.154511,890,1575,-1033,-86,7,181,7447.915,5314.836,-7051.857,11618.425
28.174530,1029,1599,-1224,-48,-15,149,7427.863,5307.401,-7060.935,11629.143
28.194550,1089,1650,-1346,-18,18,132,7410.420,5296.219,-7059.852,11646.015
28.214539,1198,1714,-1365,38,71,113,7395.334,5276.506,-7050.575,11670.147,-109,-85,-257
28.234528,1242,1758,-1334,115,73,143,7380.638,5246.427,-7041.464,11698.478
28.254547,1213,1735,-1249,148,61,183,7363.964,5210.553,-7034.796,11728.992
28.274567,1288,1717,-1252,177,31,208,7349.464,5168.453,-7034.805,11756.675
28.294556,1319,1558,-1107,160,-28,217,7336.184,5122.208,-7046.266,11778.325
28.314545,1387,1390,-1136,146,-104,227,7327.699,5072.812,-7066.412,11792.907,-108,-91,-263
28.334595,1355,1311,-1124,154,-181,179,7322.570,5029.730,-7086.565,11802.449,-108,-91,-263,25552
28.354584,1352,1274,-1102,95,-136,150,7315.446,4996.430,-7104.170,11810.425
28.374603,1395,1354,-1218,51,-98,129,7302.066,4976.526,-7116.957,11819.406
28.394592,1425,1506,-1275,-12,-14,107,7276.378,4979.511,-7123.267,11830.185
28.414612,1491,1648,-1182,-146,111,114,7231.670,5006.099,-7124.110,11845.860,-116,-87,-262
28.434601,1409,1735,-1147,-229,238,142,7171.930,5047.105,-7117.397,11868.792
28.454620,1143,1651,-1010,-300,339,179,7108.102,5096.496,-7106.838,11892.388
28.474640,1065,1499,-922,-311,337,150,7051.816,5141.706,-7102.792,11908.843
28.494629,935,1445,-852,-275,236,133,7002.225,5185.136,-7099.562,11921.193
28.514649,898,1357,-831,-266,243,102,6958.916,5223.220,-7088.661,11936.406,-105,-98,-279
28.534668,885,1290,-906,-195,262,86,6921.371,5257.572,-7068.095,11955.334
28.554657,937,1439,-1046,-143,301,75,6878.218,5295.801,-7037.966,11981.113
28.574646,1088,1547,-1100,-158,401,78,6829.110,5337.992,-6996.687,12014.612
28.594666,1072,1791,-1173,-154,472,95,6775.122,5383.845,-6950.894,12051.242
28.614685,1287,1843,-1328,-164,489,107,6726.161,5414.420,-6911.191,12087.749,-101,-93,-272
28.634705,1193,1966,-1311,-47,365,140,6675.240,5437.554,-6882.910,12121.681
28.654694,1199,1822,-1296,-131,336,201,6628.390,5455.533,-6868.880,12147.243
28.674683,1010,1664,-1265,-120,203,144,6593.688,5472.164,-6863.969,12161.417
28.694702,1053,1603,-1040,-130,137,115,6573.666,5487.468,-6865.770,12164.343
28.714691,1021,1551,-993,-138,70,27,6558.769,5507.847,-6870.967,12160.238,-108,-100,-277
28.734711,911,1565,-981,-145,48,-10,6548.683,5530.365,-6873.419,12154.067
28.754730,774,1521,-931,-150,61,-45,6542.366,5559.882,-6868.692,12146.673
28.774750,761,1453,-929,-145,81,-96,6547.354,5585.671,-6862.797,12135.480
28.794739,749,1460,-831,-86,30,-130,6557.100,5604.181,-6856.842,12125.046
28.814728,837,1444,-833,-67,34,-130,6563.558,5620.150,-6847.744,12119.301,-100,-101,-285
28.834747,962,1530,-971,-15,56,-73,6562.056,5631.735,-6835.503,12121.646,-100,-101,-285,25529
28.854767,1060,1675,-1066,-43,128,-43,6547.607,5653.802,-6815.452,12130.474
28.874756,1072,1776,-1117,-86,214,-15,6523.538,5683.421,-6788.898,12144.483
28.894776,1014,1943,-1172,-121,294,-3,6492.964,5718.082,-6761.681,12159.772
28.914795,980,2010,-1144,-142,279,36,6462.233,5743.652,-6746.895,12172.298,-98,-110,-284
28.934784,976,2061,-1005,-129,170,65,6437.494,5765.030,-6746.953,12175.268
28.954773,988,2048,-901,-165,75,55,6419.801,5783.095,-6760.711,12168.409
28.974793,1048,1901,-891,-167,-31,33,6408.430,5800.809,-6789.133,12150.133
28.994812,1060,1840,-880,-228,-145,4,6403.819,5822.551,-6831.668,12118.282
29.014801,987,1764,-854,-272,-231,-39,6405.714,5843.668,-6881.747,12078.715,-102,-104,-276
29.034821,947,1661,-912,-281,-287,-76,6421.082,5866.894,-6934.600,12028.966
29.054840,1054,1590,-951,-275,-348,-154,6450.427,5885.441,-6980.592,11977.493
29.074829,1000,1551,-833,-212,-303,-231,6479.342,5905.829,-7007.010,11936.354
29.094849,937,1496,-785,-158,-164,-235,6503.585,5928.218,-7015.442,11907.083
29.114868,773,1552,-786,-108,-59,-224,6526.476,5968.944,-7004.923,11880.375,-96,-107,-284
29.134857,741,1556,-761,-173,67,-305,6543.587,6015.133,-6982.955,11860.582
29.154877,587,1552,-743,-136,132,-269,6550.464,6063.016,-6949.502,11852.051
29.174866,487,1596,-764,-121,255,-219,6550.950,6111.962,-6904.182,11853.129
29.194885,503,1642,-761,-77,311,-213,6552.129,6155.080,-6853.462,11859.599
29.214874,597,1744,-845,-29,316,-186,6553.069,6189.488,-6804.620,11869.292,-103,-107,-272
29.234894,585,1894,-897,-24,294,-163,6552.532,6227.459,-6762.007,11874.079
29.254913,649,2033,-997,-62,253,-171,6556.054,6263.834,-6727.709,11872.485
29.274933,711,2094,-1078,-96,199,-183,6560.932,6294.869,-6697.555,11870.424
29.294922,689,2065,-1093,-44,154,-167,6574.060,6326.253,-6664.154,11865.274
29.314911,471,2052,-1116,-52,173,-241,6584.279,6361.854,-6619.720,11865.446,-98,-91,-254
29.334992,480,2022,-1157,-9,258,-212,6594.755,6395.388,-6571.079,11868.638,-98,-91,-254,25519
29.354950,346,2045,-1005,-23,267,-225,6597.424,6438.893,-6517.661,11873.086
29.374939,423,2081,-1026,-51,326,-187,6593.229,6479.650,-6466.261,11881.345
29.394959,236,2106,-903,-67,350,-150,6579.026,6528.614,-6413.444,11891.037
29.414948,118,2055,-924,-102,388,-141,6568.462,6575.179,-6361.660,11899.035,-98,-79,-261
29.434967,72,1905,-857,-78,337,-159,6563.552,6618.546,-6315.264,11902.416
29.454956,69,1776,-859,-74,275,-161,6565.259,6655.034,-6276.536,11901.614
29.474976,1,1773,-863,-43,206,-163,6570.668,6684.715,-6242.080,11900.116
29.494965,16,1729,-833,-23,175,-145,6579.491,6704.338,-6210.092,11900.938
29.514984,56,1725,-913,22,151,-136,6588.075,6718.348,-6177.838,11905.075,-111,-85,-273
29.535004,35,1861,-912,51,146,-103,6599.314,6724.131,-6147.423,11911.328
29.554993,18,1863,-971,91,95,-84,6613.395,6715.669,-6123.734,11920.491
29.575012,76,1896,-1077,152,33,-59,6632.203,6698.480,-6105.278,11929.176
29.595001,124,2015,-1049,179,-22,-36,6654.979,6674.128,-6094.453,11935.675
29.615021,263,1985,-979,179,-90,-33,6683.230,6638.038,-6096.606,11938.916,-124,-74,-265
29.635040,305,2027,-884,201,-193,-16,6717.719,6593.625,-6113.100,11935.736
29.655060,360,1970,-895,211,-295,-3,6755.141,6543.459,-6142.427,11927.163
29.675049,325,1901,-983,197,-376,10,6794.921,6491.605,-6181.646,11912.631
29.695038,468,1858,-1069,154,-433,-5,6839.233,6440.168,-6230.849,11889.536
29.715058,556,1898,-1099,119,-505,-20,6882.830,6390.530,-6284.914,11862.675,-129,-67,-277
29.735047,575,1949,-1175,100,-496,-13,6923.834,6343.708,-6335.812,11836.840
29.755066,642,1913,-1097,91,-467,-27,6964.662,6299.992,-6384.242,11810.185
29.775086,687,1918,-1062,73,-453,-38,7002.410,6260.157,-6432.346,11782.913
29.795105,723,1925,-1004,51,-429,-33,7036.154,6226.299,-6481.341,11753.867
29.815094,717,1858,-911,16,-416,-35,7066.137,6197.220,-6527.702,11725.558,-131,-79,-281
29.835083,722,1834,-869,1,-366,-31,7090.014,6171.646,-6569.827,11701.080,-131,-79,-281,25536
29.855103,678,1798,-802,0,-315,-7,7106.965,6151.173,-6606.673,11680.814
29.875122,617,1733,-767,-19,-262,5,7118.115,6135.155,-6640.191,11663.430
29.895111,603,1666,-739,-36,-229,19,7126.371,6124.365,-6673.104,11645.261
29.915161,592,1758,-848,-76,-217,4,7133.062,6120.949,-6703.377,11625.557,-122,-72,-265
29.935150,466,1829,-832,-95,-163,-10,7135.857,6124.739,-6722.859,11610.586
29.955139,510,1911,-956,-79,-93,-27,7140.802,6126.658,-6732.131,11601.158
29.975159,461,2012,-992,-33,-52,-28,7145.296,6131.686,-6732.402,11595.575
29.995148,474,2051,-1050,-21,11,-47,7149.033,6137.149,-6722.296,11596.245
30.015167,510,2117,-1027,28,50,-44,7154.584,6138.527,-6707.931,11600.410,-115,-74,-258
30.035187,454,2165,-924,62,55,-38,7159.485,6137.347,-6694.202,11605.940
30.055176,340,2078,-819,68,56,-28,7169.300,6126.617,-6677.475,11615.182
30.075195,264,1968,-742,160,13,-23,7189.091,6108.215,-6665.227,11619.675
30.095215,227,1861,-751,171,-60,-44,7216.271,6084.899,-6663.099,11616.281
30.115204,254,1739,-780,153,-156,-69,7251.901,6052.321,-6672.318,11605.815,-126,-78,-250
30.135224,432,1786,-937,180,-268,-63,7294.139,6010.047,-6696.274,11587.502
30.155213,541,1790,-1030,167,-367,-58,7336.275,5964.377,-6725.251,11567.701
30.175202,653,1862,-1112,156,-374,-50,7376.867,5918.321,-6753.333,11549.166
30.195221,772,1910,-1094,163,-354,-49,7414.094,5874.437,-6778.749,11532.831
30.215241,762,1934,-1070,146,-316,-39,7444.767,5835.540,-6798.757,11521.035,-121,-75,-246
30.235260,663,1917,-968,145,-241,-25,7470.318,5801.270,-6812.733,11513.544
30.255249,634,1851,-954,139,-208,-17,7492.751,5772.604,-6822.813,11507.405
30.275269,573,1785,-928,102,-159,-31,7511.257,5751.261,-6831.338,11500.967
30.295258,524,1796,-906,75,-129,-19,7523.264,5738.465,-6836.198,11496.623
30.315277,455,1900,-826,42,-62,-21,7530.487,5734.289,-6835.913,11494.147,-126,-78,-246
30.335266,410,1996,-764,18,-12,-23,7533.113,5737.645,-6835.224,11491.161,-126,-78,-246,25529
30.355286,311,2012,-752,-22,-7,-24,7536.337,5745.759,-6838.268,11483.179
30.375305,357,2042,-844,-64,-34,-50,7544.201,5756.323,-6849.718,11465.887
30.395294,397,2037,-867,-83,-106,-74,7557.100,5760.110,-6866.875,11445.210
30.415314,440,2044,-887,-54,-154,-70,7573.502,5756.785,-6884.745,11425.288,-118,-73,-248
30.435303,432,2017,-897,-19,-171,-67,7594.712,5746.238,-6900.716,11406.868
30.455322,436,2002,-932,36,-188,-71,7623.040,5726.904,-6916.303,11388.240
30.475342,509,1908,-970,89,-235,-86,7659.081,5698.924,-6932.272,11368.368
30.495331,519,1815,-885,120,-279,-97,7698.561,5664.178,-6946.822,11350.170
30.515350,539,1750,-852,172,-270,-85,7740.059,5623.094,-6956.794,11336.257,-120,-69,-254
30.535339,551,1715,-818,226,-270,-78,7782.198,5577.828,-6967.370,11323.269
30.555451,599,1705,-854,221,-287,-63,7819.976,5530.524,-6982.873,11310.888
30.575348,641,1701,-892,197,-286,-32,7851.202,5488.257,-6998.776,11300.009
30.595368,689,1786,-946,172,-249,-23,7877.831,5450.457,-7012.005,11291.567
30.615387,628,1836,-894,147,-211,-16,7899.088,5421.152,-7020.562,11285.506,-116,-68,-246
30.635407,623,1824,-992,128,-138,-17,7918.639,5399.213,-7025.333,11279.352
30.655396,576,1813,-1020,102,-122,-43,7935.383,5384.356,-7025.444,11274.616
30.675415,605,1886,-1099,66,-70,-44,7945.841,5377.810,-7023.589,11271.530
30.695404,534,2024,-1020,31,-14,-35,7946.696,5382.246,-7015.331,11273.953
30.715424,528,2144,-871,-1,79,-17,7940.432,5395.545,-7004.388,11278.813,-130,-75,-244
30.735413,446,2212,-877,-37,105,-18,7932.914,5413.305,-6996.974,11280.194
30.755432,375,2145,-915,-60,81,-26,7930.719,5428.912,-6993.081,11276.650
30.775452,297,2103,-920,-55,30,-45,7933.879,5440.308,-6993.101,11268.921
30.795441,231,1967,-856,-40,-13,-51,7940.252,5444.085,-6993.415,11262.411
30.815430,265,1844,-819,5,-29,-31,7949.940,5437.306,-6996.638,11256.849,-117,-72,-240
30.835449,246,1817,-878,52,-87,-15,7965.650,5420.664,-7004.480,11248.889,-117,-72,-240,25503
30.855469,285,1735,-867,83,-155,-21,7986.049,5395.751,-7017.031,11238.576
30.875458,282,1714,-921,82,-209,-14,8009.087,5367.191,-7035.922,11224.037
30.895477,369,1798,-960,93,-255,-9,8033.491,5333.604,-7059.640,11207.702
30.915497,462,1849,-940,87,-286,-2,8058.110,5295.176,-7086.972,11190.988,-117,-72,-236
30.935486,559,1845,-894,114,-315,9,8085.987,5249.440,-7114.256,11175.105
30.955505,648,1846,-921,151,-341,20,8115.959,5196.097,-7145.580,11158.310
30.975525,657,1872,-814,160,-383,35,8142.463,5141.277,-7181.602,11141.256
30.995514,678,1823,-831,144,-388,53,8168.016,5085.645,-7218.032,11124.530
31.015503,744,1777,-797,146,-384,58,8191.813,5031.177,-7255.118,11107.661,-124,-76,-245
31.035523,765,1796,-884,125,-382,59,8211.628,4982.335,-7295.638,11088.489
31.055512,799,1761,-974,70,-362,57,8225.504,4942.510,-7333.340,11071.144
31.075531,832,1842,-1001,31,-313,49,8235.430,4911.442,-7368.415,11054.289
31.095551,809,1977,-1031,1,-263,47,8240.778,4889.278,-7398.841,11039.797
31.115570,806,1966,-970,-26,-195,39,8244.457,4873.106,-7421.093,11029.260,-115,-72,-240
31.135559,824,1916,-934,-5,-159,19,8251.272,4858.429,-7437.073,11019.870
31.155579,759,1793,-835,16,-131,7,8259.595,4847.050,-7451.220,11009.085
31.175568,722,1736,-818,7,-115,-25,8267.881,4836.916,-7464.323,10998.441
31.195587,740,1690,-774,2,-121,-20,8274.981,4826.872,-7477.857,10988.316
31.215607,618,1726,-732,-6,-109,-8,8279.248,4820.666,-7489.572,10979.843,-105,-76,-231
31.235596,548,1755,-748,-9,-82,-6,8283.834,4817.694,-7498.372,10971.680
31.255615,575,1780,-836,-19,-72,-34,8291.292,4818.449,-7506.968,10959.831
31.275604,574,1863,-906,-38,-81,-57,8300.593,4819.515,-7515.607,10946.393
31.295624,681,1904,-976,-22,-80,-62,8313.185,4817.445,-7523.423,10932.370
31.315613,686,1873,-942,-1,-97,-74,8326.879,4813.273,-7527.641,10920.877,-120,-65,-224
31.335632,713,1909,-922,27,-81,-72,8341.009,4807.030,-7528.630,10912.158,-120,-65,-224,25525
31.355652,655,1927,-883,46,-59,-52,8351.659,4800.763,-7528.555,10906.821
31.375641,596,1861,-832,44,-42,-31,8359.093,4795.951,-7526.955,10904.348
