;Title, http://www.gcdataconcepts.com, HAM-IMU, MPU-9250
;Version, 1191, Build date, Nov 15 2016,  SN:CCDC30161C28AA2
;Start_time, 2018-06-21, 07:49:33.273
;Temperature, -999.00, deg C,  Vbat, 4128, mv
;MPU SR, 200,Hz,  Accel sens, 2048,counts/g, Gyro sens, 16,counts/dps,  Mag SR, 10,Hz,  Mag sens, 1666,counts/mT
;Deadband, 0, counts
;DeadbandTimeout, 5,sec
;Time, Ax, Ay, Az, Gx, Gy, Gz, Qw, Qx, Qy, Qz, Mx, My, Mz, T
0.003998,198,1987,483,-3,-5,-14,-8247.364,8091.146,10152.812,5645.368
0.006042,207,1993,483,-6,-4,-4,-8246.419,8091.166,10153.364,5645.726,518,177,454,31322
0.026031,208,2009,499,-9,-5,-11,-8244.725,8090.355,10154.876,5646.643
0.046020,188,1998,499,-12,-5,-19,-8242.458,8089.493,10156.831,5647.672
0.066009,196,2008,500,-14,-4,-21,-8239.702,8088.265,10159.338,5648.943,512,186,460
0.085968,187,1990,478,-15,-6,-26,-8236.439,8086.578,10162.179,5651.006
0.105987,203,1995,471,-13,-9,-32,-8233.390,8083.899,10165.070,5654.082
0.125946,192,1994,475,-9,-5,-38,-8230.655,8080.869,10167.962,5657.195
0.145935,215,1993,460,-5,-8,-37,-8228.696,8077.676,10169.806,5661.287
0.165924,211,2000,499,3,-8,-36,-8227.569,8074.560,10170.723,5665.721,517,171,455
0.185913,191,1995,483,12,-7,-29,-8227.144,8072.264,10170.682,5669.684
0.205902,205,1999,497,11,-11,-19,-8227.262,8071.455,10169.335,5673.079
0.225891,200,2008,522,10,-13,-10,-8226.810,8071.698,10168.064,5675.666
0.245880,199,2003,491,3,-15,-6,-8225.340,8072.937,10167.081,5677.797
0.265869,197,2015,495,-5,-19,-5,-8223.713,8074.851,10165.996,5679.373,508,180,456
0.285858,183,2004,500,-7,-21,0,-8221.922,8077.220,10164.843,5680.660
0.305847,177,2009,471,-9,-22,0,-8219.638,8079.702,10163.776,5682.345
0.325805,191,2006,472,-8,-24,0,-8217.501,8081.584,10163.100,5683.970
0.345794,191,1990,484,-9,-20,-4,-8215.680,8083.213,10162.431,5685.482
0.365783,184,2012,514,-6,-18,-5,-8214.011,8084.498,10162.170,5686.533,512,188,464
0.385772,191,1997,472,-8,-13,-6,-8212.670,8085.761,10161.982,5687.008
0.405761,199,1987,467,-9,-10,0,-8211.710,8087.006,10161.773,5686.998
0.425750,203,1994,493,-9,-8,0,-8211.055,8087.745,10161.698,5687.027
0.445770,181,1981,481,-7,-7,-3,-8210.306,8088.530,10161.774,5686.856
0.465729,170,1993,480,-11,-4,0,-8208.973,8089.447,10162.078,5686.933,518,182,456
0.485718,214,2007,529,-15,-9,-6,-8207.573,8089.687,10162.741,5687.428
0.505707,212,2008,505,-14,-6,-8,-8206.419,8090.679,10163.383,5686.533
0.525696,210,1999,457,-11,-2,3,-8205.661,8093.246,10162.928,5684.789,518,182,456,31337
0.545746,179,1995,476,-15,-7,14,-8205.509,8096.427,10161.834,5682.433
0.565674,196,1997,488,-15,-3,16,-8205.456,8098.618,10161.071,5680.751
0.585663,199,1997,479,-13,-4,9,-8204.762,8100.263,10160.876,5679.759,517,181,453
0.605621,205,2004,500,-10,-5,4,-8204.015,8102.226,10160.107,5679.411
0.625610,206,2000,496,-8,-13,6,-8203.191,8104.700,10158.603,5679.763
0.645630,215,1997,502,-5,-18,5,-8202.017,8107.113,10156.829,5681.188
0.665588,209,1992,525,-3,-22,2,-8200.306,8110.033,10154.690,5683.312
0.685577,208,2001,484,-1,-30,2,-8197.779,8113.844,10152.488,5685.452,519,179,469
0.705566,217,1991,447,-7,-35,5,-8195.383,8117.889,10149.520,5688.431
0.725555,199,1993,479,-4,-37,3,-8193.420,8122.069,10145.945,5691.668
0.745544,215,2000,488,2,-36,9,-8192.240,8126.802,10141.684,5694.205
0.765503,202,2027,490,3,-37,19,-8191.370,8132.381,10136.642,5696.469
0.785522,204,2007,504,1,-37,22,-8190.171,8138.105,10131.676,5698.852,504,174,464
0.805481,208,2002,507,1,-40,19,-8188.531,8143.342,10127.292,5701.519
0.825531,217,1984,499,2,-37,16,-8186.848,8148.713,10122.879,5704.098
0.845459,208,1991,502,-3,-40,16,-8185.280,8154.103,10118.532,5706.358
0.865448,196,2000,470,-1,-38,16,-8183.606,8158.750,10114.888,5708.578
0.885437,204,2001,494,-3,-34,11,-8181.829,8162.929,10111.926,5710.397,509,174,467
0.905426,203,1992,496,-6,-29,11,-8179.490,8166.431,10110.076,5712.017
0.925415,207,1994,514,-9,-29,4,-8176.914,8169.720,10108.722,5713.399
0.945404,214,2006,484,-15,-25,1,-8174.290,8172.876,10108.061,5713.809
0.965362,202,2014,471,-17,-21,2,-8171.762,8175.856,10107.745,5713.721
0.985351,207,2008,505,-17,-17,1,-8169.402,8178.253,10107.626,5713.876,511,180,461
1.005371,229,2001,492,-16,-16,0,-8167.189,8180.377,10107.975,5713.381
1.025360,197,1998,459,-19,-8,1,-8165.814,8182.038,10108.053,5712.829,511,180,461,31351
1.045349,222,1990,520,-17,-11,-2,-8164.943,8182.539,10108.012,5713.431
1.065307,241,2017,542,-3,-7,-7,-8163.974,8182.954,10108.407,5713.522
1.085296,236,1994,505,-9,-3,-3,-8162.854,8184.894,10108.581,5712.035,506,192,447
1.105285,202,2006,519,-21,-9,6,-8160.892,8188.025,10108.777,5710.003
1.125274,219,1994,494,-24,-7,8,-8158.252,8190.731,10109.896,5707.914
1.145263,230,1984,502,-29,-9,0,-8155.630,8192.346,10111.544,5706.423
1.165252,214,1998,504,-23,-4,-5,-8153.519,8193.244,10113.027,5705.523
1.185241,207,1988,518,-19,-3,-7,-8151.328,8193.748,10114.732,5704.906,521,179,453
1.205230,217,1991,512,-21,-3,-12,-8148.523,8193.576,10117.292,5704.622
1.225189,215,1988,490,-19,-4,-18,-8145.446,8193.288,10119.984,5704.654
1.245178,204,1979,493,-21,-5,-18,-8142.912,8192.780,10122.158,5705.146
1.265167,225,1990,505,-12,-8,-18,-8141.376,8191.673,10123.228,5707.028
1.285156,232,1985,518,-3,-8,-20,-8141.191,8190.708,10122.962,5709.150,517,169,462
1.305145,226,2006,494,7,-6,-13,-8141.608,8190.325,10121.867,5711.044
1.325165,214,1997,509,10,-8,-5,-8142.965,8190.437,10119.763,5712.677
1.345123,218,2008,517,12,-7,0,-8143.758,8190.640,10118.056,5714.280
1.365112,225,2001,527,7,-9,-3,-8143.961,8190.356,10117.091,5716.106
1.385101,236,2004,519,4,-8,-8,-8143.851,8190.862,10115.804,5717.816,517,171,467
1.405090,215,1993,514,3,-13,-2,-8144.211,8191.806,10113.958,5719.216
1.425079,212,1986,496,6,-12,1,-8144.392,8192.419,10112.154,5721.267
1.445068,208,1988,490,8,-14,-3,-8144.961,8192.312,10110.409,5723.695
1.465027,217,2010,515,12,-11,-6,-8145.953,8191.825,10108.618,5726.144
1.485046,219,2004,509,12,-6,-5,-8147.000,8191.383,10107.013,5728.120,511,163,461
1.505035,218,1995,477,10,-7,-6,-8147.883,8191.224,10105.735,5729.345
1.525024,198,2000,488,5,-3,-3,-8148.951,8191.299,10104.456,5729.974,511,163,461,31331
1.544983,213,1984,496,5,-2,0,-8149.728,8190.997,10103.520,5730.951
1.564972,209,1998,474,8,-4,-6,-8150.387,8190.418,10102.884,5731.962
1.584961,200,2009,460,3,0,-5,-8150.987,8189.696,10102.250,5733.259,515,180,461
1.604950,210,2006,500,2,-6,-12,-8151.481,8188.138,10101.727,5735.703
1.624939,249,1998,508,10,-4,-16,-8150.857,8186.934,10102.025,5737.783
1.644928,223,1992,488,2,-3,-15,-8150.340,8186.963,10101.993,5738.533
1.664917,218,1986,526,-8,-9,-4,-8149.917,8187.735,10101.775,5738.416
1.684875,197,2002,503,-6,-3,-2,-8148.722,8187.487,10102.994,5738.321,513,170,468
1.704895,225,1993,496,-10,-1,-14,-8146.883,8186.328,10105.167,5738.758
1.724884,222,2007,480,-11,0,-20,-8145.242,8184.737,10107.393,5739.437
1.744873,202,1989,479,-11,-2,-23,-8143.574,8182.745,10109.494,5740.945
1.764862,210,1991,500,-6,-4,-25,-8141.726,8180.360,10111.525,5743.387
1.784820,197,2014,526,-4,-6,-31,-8140.022,8177.610,10113.501,5746.240,523,175,461
1.804809,212,1996,481,-1,-4,-31,-8138.865,8175.092,10114.863,5749.062
1.824798,193,2012,495,0,-4,-27,-8138.340,8172.687,10115.370,5752.333
1.844787,232,1979,486,11,-5,-25,-8138.672,8170.004,10115.316,5755.767
1.864776,218,2004,526,15,-3,-22,-8140.124,8167.711,10114.527,5758.354
1.884765,210,2004,516,15,-3,-12,-8141.560,8166.554,10113.346,5760.039,518,182,458
1.904754,204,1999,483,12,-2,-5,-8142.676,8165.979,10112.092,5761.479
1.924713,220,1987,495,8,-4,-7,-8142.883,8165.162,10111.623,5763.167
1.944732,224,1999,501,3,-5,-12,-8142.641,8164.277,10111.609,5764.788
1.964721,217,2002,482,0,-5,-11,-8142.080,8164.247,10111.269,5766.219
1.984680,196,2007,505,-1,-10,-10,-8141.430,8163.900,10110.980,5768.134,515,182,449
2.004669,205,2002,495,1,-10,-13,-8140.653,8162.927,10111.000,5770.572
2.024658,204,1990,481,3,-8,-18,-8139.706,8161.336,10111.535,5773.219,515,182,449,31320
2.044708,203,1996,488,2,-7,-22,-8138.950,8159.629,10112.131,5775.654
2.064636,216,1995,500,3,-5,-21,-8138.221,8158.170,10112.607,5777.908
2.084625,212,2004,493,2,-7,-17,-8137.396,8157.062,10112.971,5779.997,514,179,457
2.104614,206,1997,491,0,-9,-16,-8136.627,8156.319,10113.124,5781.860
2.124603,193,1985,513,-1,-8,-15,-8135.202,8155.409,10113.652,5784.227
2.144592,204,2008,464,0,-11,-21,-8133.760,8154.327,10114.050,5787.081
2.164581,204,2011,486,0,-10,-22,-8132.552,8153.333,10113.854,5790.521
2.184570,207,1993,517,2,-18,-20,-8131.555,8151.956,10113.709,5794.112,513,185,461
2.204559,228,2027,504,8,-12,-22,-8129.672,8150.883,10114.185,5797.431
2.224548,210,1998,487,1,-12,-22,-8128.281,8150.709,10114.080,5799.811
2.244507,192,1993,499,-5,-16,-13,-8127.229,8151.392,10113.670,5801.039
2.264496,200,2014,506,-1,-9,-5,-8126.155,8151.257,10113.924,5802.292
2.284485,206,2008,514,-4,-8,-14,-8124.356,8149.799,10115.520,5804.076,515,172,465
2.304474,222,1983,476,-9,-5,-26,-8122.237,8148.236,10117.456,5805.861
2.324463,209,1975,476,-5,-6,-26,-8119.847,8146.291,10119.481,5808.405
2.344452,211,2008,490,-7,-10,-32,-8117.024,8143.681,10121.745,5812.064
2.364441,212,1996,457,-3,-13,-37,-8114.555,8140.840,10123.772,5815.959
2.384399,199,1977,493,-1,-11,-35,-8112.448,8138.321,10125.317,5819.734,520,185,458
2.404388,215,2006,471,1,-11,-32,-8110.652,8136.233,10126.187,5823.642
2.424377,185,1998,496,3,-11,-27,-8109.700,8134.103,10126.534,5827.338
2.444397,193,1992,486,8,-11,-25,-8109.441,8132.084,10126.306,5830.912
2.464355,207,2002,486,13,-8,-19,-8109.974,8131.029,10125.084,5833.763
2.484344,186,2008,500,12,-8,-9,-8110.804,8130.747,10123.343,5836.023,515,177,447
2.504333,187,1997,484,12,-9,-5,-8111.155,8130.584,10121.928,5838.216
2.524322,207,1992,480,10,-9,-9,-8111.022,8130.144,10120.886,5840.819,515,177,447,31335
2.544311,189,1992,502,7,-12,-12,-8110.557,8129.870,10119.948,5843.473
2.564300,181,2001,507,6,-12,-11,-8109.967,8129.611,10119.140,5846.049
2.584289,194,1995,522,3,-12,-13,-8108.944,8129.308,10118.736,5848.589,509,181,457
2.604278,181,2015,495,3,-13,-15,-8107.657,8128.759,10118.756,5851.102
2.624267,182,2007,466,0,-10,-17,-8106.429,8128.147,10118.977,5853.269
2.644226,206,2008,497,-1,-11,-17,-8105.491,8127.211,10119.193,5855.495
2.664245,215,1998,471,3,-8,-15,-8105.100,8126.438,10119.224,5857.054
2.684204,194,1988,518,1,-5,-12,-8105.055,8125.962,10118.994,5858.174,508,180,447
2.704193,189,1988,474,1,-3,-9,-8104.820,8125.612,10118.882,5859.178
2.724182,206,2011,486,-1,-6,-10,-8104.263,8125.479,10118.902,5860.100
2.744171,193,2000,476,-4,-8,-9,-8103.005,8125.521,10119.185,5861.290
2.764160,195,2012,494,-5,-12,-15,-8101.503,8125.334,10119.480,5863.118
2.784149,197,2001,462,-3,-11,-14,-8099.623,8125.165,10119.679,5865.605,504,181,460
2.804138,176,1997,519,-8,-18,-18,-8098.233,8124.306,10119.964,5868.222
2.824127,199,2006,515,0,-10,-21,-8096.541,8123.568,10120.758,5870.209
2.844085,203,2021,493,-3,-8,-16,-8095.353,8123.708,10120.952,5871.319
2.864105,171,2006,478,-6,-10,-8,-8094.944,8124.256,10120.668,5871.613
2.884063,181,2008,495,-4,-2,-2,-8094.466,8124.014,10120.960,5872.105,517,179,460
2.904083,194,2020,475,-5,-4,-10,-8093.106,8123.180,10122.193,5873.007
2.924042,203,2008,474,-8,-4,-19,-8091.660,8122.352,10123.461,5873.959
2.944031,195,1991,479,-7,-6,-17,-8090.297,8121.614,10124.229,5875.534
2.964020,181,2002,468,-4,-10,-18,-8088.671,8120.494,10124.810,5878.319
2.984009,182,2013,491,0,-13,-24,-8087.360,8118.915,10125.265,5881.519,504,181,450
3.003998,172,1984,490,5,-10,-23,-8086.869,8117.410,10125.153,5884.464
3.023987,201,1991,483,7,-9,-19,-8086.693,8116.006,10124.730,5887.369,504,181,450,31363
3.043976,205,2009,460,10,-7,-16,-8088.306,8114.245,10123.366,5889.924
3.063934,201,2001,494,17,-3,-9,-8090.827,8112.870,10121.271,5891.957
3.083923,197,1993,501,22,-1,-2,-8093.622,8112.426,10118.459,5893.559,511,185,454
3.103912,209,2010,508,21,-5,6,-8096.576,8112.690,10115.334,5894.502
3.123932,164,2007,489,18,-4,9,-8098.934,8113.343,10112.584,5895.082
3.143890,191,2013,500,12,-6,5,-8100.659,8113.864,10110.218,5896.055
3.163879,191,1986,497,8,-6,5,-8101.718,8115.085,10108.077,5896.590
3.183868,188,2013,495,6,-9,7,-8102.564,8116.831,10105.684,5897.126,524,176,460
3.203857,206,2007,490,5,-11,9,-8103.172,8118.679,10103.208,5897.989
3.223846,193,1991,495,5,-13,7,-8103.525,8120.703,10100.882,5898.701
3.243835,196,2002,446,2,-13,9,-8103.391,8123.004,10098.913,5899.087
3.263885,181,1988,481,-3,-14,8,-8102.843,8125.578,10096.898,5899.744
3.283783,211,2018,483,-5,-18,5,-8102.471,8128.210,10094.824,5900.179,500,181,453
3.303802,195,1993,465,-3,-16,9,-8102.352,8131.205,10092.380,5900.396
3.323791,204,1996,481,-3,-18,13,-8102.016,8134.605,10089.740,5900.687
3.343750,192,1991,486,-4,-19,14,-8101.316,8138.316,10087.149,5900.962
3.363739,200,2003,466,-7,-22,14,-8100.076,8142.080,10084.894,5901.326
3.383728,186,2004,503,-8,-22,11,-8098.381,8145.903,10082.815,5901.929,514,174,448
3.403717,233,1992,519,-11,-25,5,-8096.060,8149.729,10080.956,5903.006
3.423706,191,1986,471,-11,-26,6,-8094.069,8153.237,10078.892,5904.416
3.443695,209,2004,482,-9,-28,3,-8092.884,8155.242,10076.833,5906.787
3.463684,228,2023,480,7,-21,-3,-8092.393,8156.606,10074.928,5908.824
3.483673,213,1996,486,4,-16,1,-8092.204,8158.893,10072.877,5909.423,506,180,456
3.503631,165,1976,492,-7,-17,8,-8091.588,8161.854,10071.373,5908.742
3.523651,192,1988,520,-12,-10,11,-8090.468,8163.954,10071.432,5907.273,506,180,456,31341
3.543640,211,2012,481,-18,-5,2,-8088.648,8164.985,10072.613,5906.325
3.563598,195,2002,504,-16,-4,-9,-8087.281,8165.609,10073.485,5905.847
3.583587,188,1999,494,-11,-3,-6,-8085.949,8166.520,10074.113,5905.341,503,182,461
3.603576,214,2010,467,-13,-7,-7,-8083.982,8167.248,10074.944,5905.610
3.623565,216,2024,500,-12,-10,-10,-8081.747,8167.819,10075.869,5906.301
3.643554,209,1978,489,-14,-13,-12,-8079.856,8168.713,10076.238,5907.022
3.663574,212,1990,470,-11,-14,-7,-8078.674,8169.868,10075.630,5908.078
3.683532,202,1973,478,0,-15,-4,-8077.908,8171.062,10074.135,5910.023,513,182,461
3.703521,220,2011,506,1,-19,-2,-8078.105,8172.501,10071.922,5911.537
3.723510,215,2013,465,4,-15,4,-8078.501,8174.733,10069.029,5912.839
3.743500,195,2012,503,5,-17,7,-8078.602,8176.830,10066.503,5914.100
3.763489,206,2001,488,1,-17,0,-8077.639,8178.325,10065.332,5915.342
3.783478,215,1990,476,-4,-15,-5,-8076.211,8178.967,10064.855,5917.214,513,185,458
3.803467,200,1991,471,-1,-15,-11,-8074.994,8179.307,10064.684,5918.696
3.823425,216,1999,503,-4,-10,-12,-8073.968,8179.574,10064.536,5919.978
3.843414,228,2001,506,-5,-10,-13,-8072.661,8179.497,10065.117,5920.880
3.863403,207,2011,493,-9,-6,-13,-8070.975,8179.443,10066.238,5921.347
3.883392,201,1995,494,-12,-6,-14,-8069.491,8179.593,10067.373,5921.232,501,180,463
3.903381,203,2007,483,-13,-3,-11,-8067.864,8180.011,10068.354,5921.205
3.923370,209,2001,497,-13,-7,-10,-8066.412,8180.222,10069.129,5921.573
3.943329,210,2013,495,-7,-7,-12,-8065.030,8180.112,10069.726,5922.593
3.963348,202,1987,478,-5,-8,-14,-8063.643,8179.692,10070.200,5924.256
3.983337,189,1990,484,-3,-11,-16,-8062.253,8179.170,10070.761,5925.915,511,180,458
4.003326,193,2017,475,-4,-10,-16,-8060.758,8178.619,10071.325,5927.749
4.023285,203,2011,509,-4,-9,-18,-8059.541,8177.446,10071.801,5930.212,511,180,458,31347
4.043274,185,1982,502,1,-11,-22,-8059.543,8176.048,10071.875,5932.011
4.063263,211,2007,526,10,-5,-14,-8059.414,8174.301,10071.736,5934.832
4.083252,233,2006,478,12,-4,-19,-8059.863,8172.355,10071.587,5937.152,518,172,449
4.103241,224,2010,533,5,-7,-17,-8060.574,8171.645,10070.960,5938.229
4.123230,191,2000,484,3,-2,-3,-8061.229,8172.914,10069.502,5938.065
4.143219,183,1984,464,0,-4,8,-8061.720,8173.747,10068.677,5937.652
4.163177,197,1996,479,-5,-3,-3,-8061.268,8173.410,10069.011,5938.163
4.183197,232,1991,497,-6,-3,-13,-8060.206,8173.471,10069.480,5938.725,501,189,468
4.203155,207,1998,472,-7,-8,-8,-8059.346,8174.667,10068.833,5939.342
4.223144,185,2000,497,-7,-15,-2,-8058.148,8176.368,10067.671,5940.596
4.243164,193,2000,479,-1,-19,-5,-8056.601,8177.660,10066.538,5942.835
4.263122,204,1984,488,0,-22,-7,-8055.039,8178.874,10065.072,5945.765
4.283111,204,1997,490,2,-24,-9,-8053.848,8180.159,10063.032,5949.063,507,179,453
4.303100,193,1995,496,7,-25,-6,-8053.527,8181.360,10060.140,5952.736
4.323089,198,2008,477,13,-24,-3,-8053.874,8182.433,10056.711,5956.583
4.343078,233,2010,482,18,-22,0,-8055.172,8183.710,10052.364,5960.410
4.363067,208,2014,495,22,-25,6,-8057.044,8185.609,10047.261,5963.876
4.383056,212,1999,501,23,-23,11,-8058.784,8187.683,10042.295,5967.041,517,186,464
4.403045,192,1992,486,21,-23,11,-8060.219,8189.994,10037.422,5970.130
4.423034,228,2020,440,19,-25,11,-8061.133,8192.517,10032.981,5972.899
4.443023,210,2013,504,14,-25,11,-8062.128,8195.328,10028.313,5975.537
4.462982,197,2000,506,15,-25,13,-8062.439,8198.524,10024.037,5977.909
4.483062,196,2004,464,8,-26,11,-8062.383,8201.093,10020.387,5980.579,513,187,454
4.502990,194,2003,488,10,-24,4,-8062.050,8203.289,10017.321,5983.151
4.522949,215,2002,487,6,-23,4,-8061.580,8205.468,10014.865,5984.908,513,187,454,31335
4.542938,217,2011,495,1,-19,4,-8061.105,8207.667,10012.514,5986.465
4.562927,199,1996,481,1,-18,2,-8061.003,8209.522,10010.299,5987.765
4.582916,212,2020,508,4,-15,4,-8061.013,8211.353,10008.007,5989.071,517,193,460
4.602905,207,2003,464,2,-17,4,-8060.654,8213.586,10005.647,5990.434
4.622894,209,1999,504,-1,-20,6,-8059.883,8216.317,10003.349,5991.565
4.642883,196,1979,481,-4,-22,4,-8058.330,8219.078,10001.559,5992.856
4.662872,216,2015,501,-5,-23,1,-8056.733,8221.428,9999.675,5994.923
4.682831,215,1995,460,-3,-24,0,-8055.725,8223.538,9997.285,5997.368,501,180,461
4.702820,197,1998,465,1,-26,-3,-8054.774,8224.836,9995.117,6000.479
4.722809,224,2014,484,8,-20,-8,-8053.650,8225.376,9993.527,6003.895
4.742798,212,2008,487,5,-22,-11,-8052.686,8226.588,9991.766,6006.459
4.762787,215,2008,482,1,-20,-3,-8051.852,8228.792,9989.755,6007.903
4.782776,193,1992,486,-1,-17,5,-8050.878,8230.540,9988.469,6008.949,503,182,458
4.802765,193,2000,487,-4,-16,-4,-8049.024,8231.333,9988.152,6010.874
4.822754,217,1986,503,-7,-17,-15,-8046.790,8231.571,9988.584,6012.821
4.842743,208,1996,480,-8,-16,-15,-8044.287,8232.252,9988.940,6014.647
4.862732,210,2003,486,-9,-17,-16,-8041.782,8232.632,9988.988,6017.395
4.882690,213,1977,474,-5,-23,-17,-8039.457,8232.684,9988.771,6020.791,518,185,463
4.902679,215,2000,465,1,-21,-19,-8037.383,8232.846,9987.872,6024.828
4.922699,207,2007,478,4,-23,-17,-8035.726,8233.343,9986.369,6028.850
4.942657,217,2003,480,6,-25,-14,-8035.102,8233.721,9983.806,6033.409
4.962646,224,1998,472,18,-23,-10,-8035.736,8233.950,9980.212,6038.196
4.982635,214,1994,472,25,-23,-4,-8037.499,8234.547,9975.612,6042.635,511,185,458
5.002624,217,2000,470,26,-24,3,-8039.432,8236.188,9970.582,6046.128
5.022613,173,2010,499,23,-22,11,-8041.321,8238.168,9965.783,6048.831,511,185,458,31345
5.042602,216,2004,456,17,-20,12,-8042.457,8239.839,9962.007,6051.261
5.062591,207,2016,463,15,-20,5,-8042.862,8241.597,9958.910,6053.428
5.082580,186,1991,456,5,-18,4,-8042.936,8243.568,9956.279,6054.974,517,183,448
5.102539,195,2009,482,2,-19,4,-8042.746,8245.254,9954.245,6056.274
5.122558,201,2007,482,1,-13,0,-8042.717,8246.524,9952.627,6057.242
5.142547,206,2015,464,-1,-10,0,-8042.465,8247.545,9951.880,6057.414
5.162506,217,2003,484,-5,-6,-2,-8042.508,8248.421,9951.347,6057.039
5.182495,221,1983,465,-7,-5,0,-8042.135,8249.413,9951.083,6056.616,518,180,461
5.202484,204,2001,460,-9,-6,-2,-8041.951,8250.200,9950.878,6056.128
5.222473,209,2012,449,-7,-5,0,-8041.887,8251.437,9950.292,6055.490
5.242462,218,2000,491,-6,-5,3,-8041.338,8253.007,9949.742,6054.983
5.262451,202,2007,471,-10,-10,0,-8040.567,8254.842,9949.299,6054.233
5.282440,212,2000,472,-10,-7,3,-8039.537,8257.046,9948.634,6053.687,513,185,463
5.302398,217,2006,464,-11,-13,3,-8038.537,8259.481,9947.477,6053.596
5.322418,227,1982,467,-8,-16,4,-8037.370,8262.186,9945.827,6054.165
5.342407,206,2013,467,-7,-22,4,-8036.654,8264.460,9943.607,6055.659
5.362365,234,1990,478,6,-19,2,-8036.198,8266.464,9940.886,6057.995
5.382354,234,2015,488,3,-22,2,-8035.870,8269.493,9937.605,6059.680,517,188,457
5.402344,198,1984,508,-1,-26,11,-8034.989,8273.753,9934.092,6060.792
5.422333,198,2015,459,-4,-27,13,-8033.425,8278.069,9931.278,6061.585
5.442322,217,2006,466,-8,-28,11,-8031.139,8281.507,9929.190,6063.336
5.462311,220,1993,447,-8,-30,1,-8028.792,8285.093,9927.135,6064.912
5.482300,200,2007,482,-9,-30,4,-8026.770,8288.602,9924.532,6067.053,527,192,454
5.502289,189,2000,468,-5,-31,2,-8024.082,8291.671,9922.340,6070.000
5.522278,232,1987,467,-4,-34,-4,-8021.436,8294.111,9920.550,6073.088,527,192,454,31390
5.542267,232,1987,470,-3,-29,-8,-8019.412,8296.145,9918.575,6076.208
5.562225,213,2014,454,1,-27,-6,-8018.381,8297.940,9915.868,6079.534
5.582245,204,1999,451,10,-27,-4,-8018.316,8299.054,9912.449,6083.675,532,180,458
5.602203,216,1997,493,19,-27,-5,-8019.546,8299.473,9908.281,6088.269
5.622192,210,2015,494,29,-22,-2,-8021.758,8300.052,9903.433,6092.451
5.642181,218,2016,455,28,-22,2,-8023.841,8300.946,9898.629,6096.297
5.662170,211,2012,489,25,-20,4,-8025.002,8301.933,9894.942,6099.410
5.682159,220,2011,464,14,-19,0,-8025.061,8302.746,9892.494,6102.196,515,189,454
5.702209,205,1998,472,7,-18,-5,-8024.658,8303.683,9890.735,6104.301
5.722137,222,2007,501,4,-17,-4,-8024.175,8304.737,9889.268,6105.880
5.742126,226,2011,454,2,-14,-2,-8023.719,8305.520,9887.942,6107.560
5.762115,228,2012,456,0,-13,-6,-8023.274,8306.122,9887.079,6108.723
5.782104,229,2009,486,-1,-11,-7,-8022.683,8306.664,9886.441,6109.795,513,185,458
5.802093,233,2013,454,-3,-11,-7,-8022.062,8307.036,9886.163,6110.553
5.822082,227,2000,455,-1,-8,-8,-8021.917,8307.103,9885.645,6111.492
5.842041,213,2018,469,3,-7,-8,-8022.014,8307.044,9884.749,6112.893
5.862030,216,2010,494,4,-7,-8,-8021.539,8306.306,9884.624,6114.722
5.882019,213,2000,456,2,-8,-16,-8020.861,8305.545,9884.803,6116.355,529,179,464
5.902008,217,2011,442,0,-6,-16,-8019.697,8304.693,9885.578,6117.786
5.921997,241,1991,472,-3,-7,-20,-8018.530,8303.436,9886.163,6120.076
5.941986,203,2003,464,2,-8,-21,-8017.312,8302.178,9886.768,6122.400
5.961975,208,2016,453,5,-6,-21,-8015.951,8300.138,9887.629,6125.559
5.981933,236,2004,483,3,-11,-31,-8014.548,8297.276,9888.910,6129.201,520,177,456
6.001953,224,2006,469,4,-7,-34,-8012.861,8294.907,9890.592,6131.899
6.021942,206,2021,504,-1,-4,-26,-8010.613,8293.718,9892.696,6133.051,520,177,456,31357
6.041931,185,2026,487,-15,-5,-24,-8007.691,8292.138,9896.063,6133.571
6.061889,223,2007,472,-20,0,-32,-8003.669,8289.628,9901.194,6133.932
6.081878,212,1989,465,-25,3,-40,-8000.224,8286.841,9906.684,6133.328,519,181,457
6.101867,209,1995,462,-24,8,-35,-7997.494,8284.864,9911.124,6132.387
6.121856,200,1995,464,-23,6,-26,-7995.394,8283.083,9914.741,6131.684
6.141845,202,1997,472,-17,5,-24,-7993.566,8281.147,9917.586,6132.081
6.161834,227,1996,457,-9,0,-26,-7992.519,8278.892,9919.636,6133.175
6.181823,225,2022,427,0,0,-24,-7992.611,8276.994,9920.078,6134.902,508,182,456
6.201812,195,1986,476,10,-2,-16,-7993.715,8275.760,9918.262,6138.062
6.221802,233,1999,441,19,-12,-10,-7995.231,8275.206,9915.037,6142.045
6.241791,218,2010,466,25,-19,-3,-7997.850,8276.373,9909.614,6145.814
6.261749,226,2020,476,28,-26,14,-8000.305,8279.442,9902.961,6149.206
6.281738,209,1981,483,27,-33,23,-8001.895,8283.439,9895.857,6153.191,508,185,449
6.301727,224,2010,452,24,-40,19,-8002.353,8287.396,9889.247,6157.892
6.321716,203,2014,468,21,-46,13,-8001.912,8291.641,9883.226,6162.416
6.341705,210,2013,467,12,-45,12,-8000.849,8296.750,9877.085,6166.764
6.361694,193,2021,467,12,-48,16,-7999.823,8302.033,9870.863,6170.947
6.381683,210,2021,464,8,-50,15,-7997.325,8307.222,9865.080,6176.444,515,182,458
6.401672,194,2001,463,10,-57,7,-7994.287,8312.267,9859.981,6181.730
6.421661,228,2002,460,3,-52,4,-7991.242,8316.940,9855.427,6186.643
6.441620,211,2009,469,3,-49,2,-7988.231,8321.500,9851.183,6191.156
6.461639,191,2016,476,1,-44,3,-7985.379,8325.675,9847.395,6195.248
6.481628,220,1990,447,1,-42,1,-7983.185,8329.108,9844.030,6198.806,511,189,463
6.501617,220,2007,458,-1,-36,0,-7980.884,8332.400,9841.110,6201.981
6.521606,222,1995,431,-1,-34,0,-7978.774,8335.435,9838.689,6204.459,511,189,463,31361
6.541565,236,1992,440,-3,-30,0,-7976.771,8337.847,9835.667,6208.583
6.561554,219,2002,455,8,-38,-7,-7975.603,8339.660,9831.836,6213.716
6.581543,216,2019,462,21,-35,-6,-7974.824,8340.951,9827.132,6220.420,509,188,460
6.601532,205,2001,454,27,-45,-11,-7973.694,8341.422,9822.338,6228.804
6.621521,219,2020,462,28,-48,-19,-7972.211,8342.437,9817.165,6237.492
6.641510,213,2002,454,30,-51,-12,-7970.526,8345.238,9810.644,6246.151
6.661468,211,2000,484,28,-60,-4,-7968.812,8348.725,9803.590,6254.748
6.681488,213,2003,467,28,-63,-2,-7965.961,8352.613,9796.889,6263.683,520,194,463
6.701446,220,2001,434,23,-67,-7,-7962.967,8355.715,9790.469,6273.383
6.721435,211,1991,453,27,-67,-11,-7960.326,8358.707,9783.500,6283.611
6.741424,218,2020,462,36,-68,-11,-7958.310,8361.124,9776.013,6294.592
6.761413,216,2007,462,41,-68,-12,-7955.915,8363.276,9768.468,6306.465
6.781402,214,1979,351,36,-76,-19,-7950.349,8366.799,9761.567,6319.483,517,183,455
6.801391,202,2021,478,29,-94,-25,-7950.287,8367.953,9750.686,6334.814
6.821380,246,2020,333,80,-80,-10,-7945.336,8372.238,9741.391,6349.644
6.841369,308,2006,264,26,-110,-19,-7943.564,8377.385,9727.683,6366.067
6.861358,263,2013,492,92,-101,13,-7954.584,8380.753,9703.327,6385.017
6.881347,87,2058,600,149,-96,61,-7961.598,8387.972,9682.644,6398.179,504,188,455
6.901306,128,2102,507,81,-91,47,-7956.297,8396.271,9673.000,6408.468
6.921356,174,2013,400,-3,-107,-6,-7943.852,8404.167,9668.731,6419.989
6.941284,221,1964,368,-20,-104,-31,-7932.243,8409.082,9664.288,6434.581
6.961273,224,1973,416,13,-110,-45,-7924.668,8411.921,9656.280,6452.201
6.981262,239,2016,508,47,-114,-35,-7918.729,8416.576,9645.192,6469.982,511,187,454
7.001251,151,1962,457,49,-119,-12,-7912.987,8424.805,9632.503,6485.183
7.021240,142,2024,445,40,-120,11,-7907.692,8432.990,9620.195,6499.259,511,187,454,31400
7.041260,192,2006,416,29,-117,5,-7899.659,8441.113,9609.248,6514.659
7.061218,226,2020,483,32,-121,-6,-7892.558,8449.153,9598.914,6528.064
7.081207,215,2006,403,15,-110,2,-7885.723,8459.022,9589.427,6537.479,515,189,444
7.101166,216,2045,426,7,-99,19,-7880.573,8469.618,9579.404,6544.661
7.121185,186,2030,414,5,-87,30,-7877.450,8480.137,9568.695,6550.463
7.141144,174,2093,443,8,-75,44,-7876.148,8489.540,9558.394,6554.886
7.161163,202,2026,456,7,-69,40,-7873.048,8499.563,9550.269,6557.464
7.181122,205,1976,471,-10,-61,38,-7871.881,8508.883,9542.910,6557.492,509,181,445
7.201111,202,1997,400,-6,-44,44,-7871.871,8515.966,9537.077,6556.795
7.221100,216,1995,440,5,-30,33,-7873.429,8520.140,9531.033,6558.290
7.241089,225,2010,441,22,-24,23,-7876.178,8523.148,9524.408,6560.705
7.261078,223,2010,433,23,-27,25,-7878.715,8526.849,9517.679,6562.615
7.281067,193,1978,431,21,-23,27,-7882.005,8529.373,9511.058,6564.982,509,193,438
7.301056,198,2004,381,35,-22,20,-7886.832,8528.671,9504.397,6569.743
7.321045,178,1989,387,54,-11,3,-7893.337,8523.942,9498.117,6577.146
7.341034,175,2012,405,78,-5,-16,-7901.470,8514.756,9492.658,6587.152
7.361023,212,2055,438,95,4,-39,-7907.362,8503.158,9490.088,6598.756
7.380981,205,2043,419,80,9,-63,-7911.122,8491.154,9489.432,6610.639,506,199,447
7.401001,232,2016,396,77,2,-69,-7915.199,8480.092,9488.167,6621.766
7.420959,220,2004,354,71,-2,-55,-7920.001,8471.773,9484.567,6631.823
7.440948,188,2029,384,71,-8,-33,-7925.209,8465.023,9479.488,6641.475
7.460937,189,2013,405,71,-11,-27,-7930.336,8458.456,9474.724,6650.512
7.480926,221,2029,375,70,-9,-27,-7934.825,8452.674,9471.387,6657.260,502,198,448
7.500915,195,2031,425,47,-2,-23,-7939.880,8448.464,9467.465,6662.154
7.520904,199,2063,395,53,3,-7,-7944.900,8444.960,9464.252,6665.177,502,198,448,31347
7.540893,207,2061,384,33,6,-3,-7948.369,8443.185,9461.658,6666.972
7.560882,196,2048,419,23,3,0,-7953.621,8441.000,9458.539,6667.900
7.580871,208,2040,383,33,11,9,-7958.242,8439.759,9456.608,6666.696,507,188,438
7.600860,204,2038,360,18,15,11,-7963.129,8438.637,9454.614,6665.109
7.620849,203,2032,368,18,17,12,-7968.165,8437.852,9452.727,6662.760
7.640808,181,1998,416,12,18,14,-7972.744,8437.326,9451.601,6659.545
7.660797,243,2010,393,7,20,13,-7976.994,8437.349,9450.080,6656.585
7.680816,197,1994,377,7,16,17,-7980.737,8438.001,9448.774,6653.126,517,205,441
7.700805,224,2024,356,2,15,17,-7983.763,8439.604,9447.284,6649.576
7.720764,207,2049,402,-5,8,22,-7987.043,8441.651,9445.750,6645.216
7.740753,220,2037,357,-4,14,25,-7989.739,8444.041,9444.781,6640.314
7.760742,245,2020,378,-15,10,22,-7991.246,8446.948,9444.679,6634.947
7.780700,236,2011,383,-20,10,22,-7992.704,8450.279,9444.345,6629.422,511,192,444
7.800689,244,2038,383,-22,10,24,-7992.152,8454.697,9444.230,6624.617
7.820709,249,2048,405,-33,-6,16,-7989.090,8460.002,9444.986,6620.458
7.840698,259,2043,419,-43,-15,11,-7983.673,8466.899,9445.269,6617.772
7.860656,219,2030,401,-48,-36,7,-7975.342,8475.617,9444.782,6617.352
7.880646,226,2011,408,-51,-59,1,-7964.751,8484.509,9444.102,6619.684,507,195,441
7.900635,217,2018,389,-49,-73,-12,-7951.610,8492.530,9444.035,6625.288
7.920624,230,2022,422,-48,-89,-35,-7935.503,8500.031,9444.186,6634.760
7.940613,202,2028,418,-43,-111,-52,-7917.179,8507.684,9443.617,6647.641
7.960602,219,2004,417,-39,-128,-62,-7897.548,8515.239,9441.966,6663.644
7.980591,210,2015,440,-31,-147,-71,-7876.382,8522.874,9439.829,6681.938,507,200,438
8.000580,184,2013,419,-27,-156,-77,-7855.731,8530.573,9436.629,6700.915
8.020569,193,2021,444,-21,-158,-78,-7833.630,8538.714,9432.523,6722.167,507,200,438,31347
8.040558,172,2016,414,-21,-165,-76,-7813.030,8546.161,9428.907,6741.723
8.060516,208,2023,418,-16,-160,-75,-7793.677,8553.722,9424.975,6760.009
8.080505,141,2019,430,-19,-138,-57,-7778.857,8560.153,9421.664,6773.540,521,191,438
8.100525,161,2006,414,-13,-123,-46,-7764.719,8566.910,9417.147,6787.485
8.120483,141,2004,447,-11,-107,-37,-7753.526,8571.521,9413.340,6799.728
8.140533,145,2014,390,2,-99,-42,-7742.277,8575.440,9409.111,6813.444
8.160461,173,2015,402,6,-96,-44,-7733.509,8577.913,9404.000,6827.332
8.180450,173,2022,402,21,-92,-41,-7725.625,8580.680,9397.503,6841.710,512,188,448
8.200439,162,2038,410,27,-96,-34,-7719.254,8584.196,9389.794,6855.064
8.220428,179,2026,457,29,-90,-19,-7713.757,8588.105,9381.987,6867.033
8.240417,184,2034,414,25,-89,-13,-7707.575,8593.483,9374.472,6877.503
8.260406,188,2006,449,13,-87,-5,-7700.999,8601.173,9366.253,6886.448
8.280365,196,2001,416,4,-94,8,-7694.157,8611.673,9356.768,6893.864,497,195,438
8.300384,202,1999,420,-4,-101,23,-7687.340,8624.772,9345.831,6899.926
8.320373,218,1997,428,-11,-106,41,-7680.252,8640.102,9333.761,6904.975
8.340332,210,2011,363,-17,-113,53,-7674.065,8656.552,9319.817,6910.084
8.360321,200,2041,380,-5,-125,61,-7668.799,8673.633,9303.640,6916.308
8.380310,175,2059,408,3,-120,66,-7664.712,8689.725,9286.909,6923.121,496,189,442
8.400299,189,2035,417,10,-120,66,-7660.736,8703.908,9271.289,6930.638
8.420288,224,2066,478,15,-112,51,-7655.873,8716.860,9257.294,6938.436
8.440277,209,2027,433,7,-108,44,-7650.645,8729.987,9244.742,6944.431
8.460266,202,1989,409,-1,-99,44,-7646.062,8742.787,9233.406,6948.456
8.480255,203,1957,413,-9,-82,47,-7641.549,8754.760,9223.740,6951.183,498,189,456
8.500244,210,1954,428,-11,-82,39,-7636.113,8764.862,9215.232,6955.710
8.520233,169,1966,419,-4,-85,16,-7629.704,8772.557,9208.322,6962.191,498,189,456,31372
8.540222,151,2018,408,0,-81,-4,-7621.584,8777.245,9202.328,6973.092
8.560180,171,2046,390,16,-89,-32,-7611.402,8777.789,9198.026,6989.187
8.580169,153,2087,414,28,-103,-74,-7598.942,8774.640,9195.390,7010.135,502,195,453
8.600158,135,2052,400,41,-107,-108,-7584.940,8767.559,9195.079,7034.525
8.620147,133,2051,427,50,-109,-142,-7566.754,8758.587,9196.342,7063.577
8.640136,103,2030,412,44,-123,-170,-7547.143,8747.265,9199.996,7093.764
8.660125,93,2023,418,47,-120,-188,-7526.886,8733.968,9205.550,7124.399
8.680115,59,1999,409,45,-106,-202,-7506.276,8718.584,9213.474,7154.679,498,194,437
8.700104,86,1988,392,43,-100,-215,-7485.267,8702.069,9222.564,7185.020
8.720093,86,2006,406,41,-93,-218,-7464.455,8684.583,9232.633,7214.835
8.740051,91,2025,406,38,-87,-223,-7444.245,8667.175,9242.884,7243.467
8.760071,63,2040,387,33,-81,-214,-7425.880,8650.398,9252.776,7269.696
8.780029,70,2066,383,32,-71,-200,-7408.781,8634.640,9262.011,7294.076,496,187,444
8.800018,37,2067,407,29,-64,-186,-7392.943,8620.178,9270.776,7316.082
8.820007,49,2049,422,24,-57,-171,-7378.505,8607.074,9279.411,7335.114
8.839996,60,2062,420,19,-46,-155,-7366.161,8595.364,9287.470,7351.036
8.860016,77,2048,378,12,-35,-133,-7355.417,8586.351,9294.383,7363.578
8.879974,82,2036,393,5,-33,-106,-7347.345,8580.437,9298.798,7372.951,486,192,442
8.899963,101,2039,361,1,-26,-70,-7342.553,8578.496,9299.913,7378.575
8.919952,86,2025,368,-1,-27,-30,-7341.750,8580.277,9297.187,7380.738
8.939941,54,2023,372,5,-20,12,-7344.516,8584.526,9291.678,7379.983
8.959900,53,2053,356,10,-12,40,-7350.355,8589.414,9284.528,7377.480
8.979919,58,2046,335,17,0,57,-7358.952,8593.280,9277.749,7372.935,481,194,447
8.999908,71,2037,369,22,17,62,-7369.986,8595.826,9271.766,7366.468
9.019867,73,2028,425,23,36,67,-7382.622,8598.584,9266.152,7357.655,481,194,447,31388
9.039856,83,2018,385,18,45,77,-7395.674,8601.720,9261.673,7346.514
9.059845,71,2027,401,7,60,79,-7407.910,8604.710,9259.417,7333.516
9.079834,67,2050,457,-9,66,71,-7418.299,8607.125,9260.708,7318.534,473,188,443
9.099823,58,2064,416,-29,80,57,-7426.453,8608.812,9266.098,7301.438
9.119812,66,2053,423,-51,90,44,-7432.070,8609.840,9275.250,7282.867
9.139801,101,2047,429,-72,96,27,-7434.888,8610.821,9287.039,7263.782
9.159790,102,2059,447,-88,94,13,-7435.073,8612.690,9300.411,7244.242
9.179779,130,2055,470,-102,85,9,-7433.178,8616.751,9313.171,7224.940,478,193,438
9.199737,141,2054,458,-111,67,13,-7428.438,8624.599,9323.312,7207.350
9.219726,169,2050,488,-113,30,23,-7421.680,8636.480,9329.171,7192.486
9.239715,166,2041,456,-110,-7,39,-7413.299,8651.975,9329.790,7181.697
9.259704,145,2055,388,-93,-48,49,-7406.036,8669.948,9324.189,7174.786
9.279693,148,2051,361,-62,-73,71,-7401.167,8688.739,9311.167,7173.991,478,188,448
9.299682,179,2045,369,-20,-105,90,-7400.594,8707.936,9290.890,7177.593
9.319671,175,2024,356,25,-122,112,-7404.923,8727.652,9263.156,7185.024
9.339660,169,1982,361,71,-137,143,-7414.605,8747.592,9229.579,7193.995
9.359710,160,1973,326,107,-138,167,-7428.937,8767.249,9191.763,7203.690
9.379608,159,1910,329,131,-136,187,-7447.182,8786.781,9151.162,7212.740,479,194,449
9.399627,145,1908,369,136,-123,209,-7465.404,8807.343,9110.833,7219.875
9.419616,19,1903,423,122,-129,207,-7478.628,8828.315,9075.892,7224.582
9.439575,-13,1948,512,77,-121,172,-7480.175,8846.965,9054.067,7227.551
9.459564,20,2061,527,-8,-98,86,-7470.901,8858.751,9051.811,7225.533
9.479553,89,2084,394,-64,-42,0,-7458.173,8864.012,9059.802,7222.213,491,194,456
9.499542,68,2083,403,-85,-8,-49,-7449.069,8860.178,9074.323,7218.083
9.519531,62,2093,339,-66,41,-88,-7441.070,8849.892,9093.892,7214.323,491,194,456,31367
9.539520,33,2099,282,-59,70,-119,-7436.994,8832.073,9117.009,7211.184
9.559509,81,2094,309,-28,118,-144,-7437.463,8806.745,9142.569,7209.317
9.579498,157,2071,352,0,143,-163,-7442.529,8777.665,9166.592,7209.047,490,188,441
9.599487,211,2069,483,38,161,-153,-7452.670,8750.122,9185.812,7207.590
9.619476,180,2023,420,44,148,-109,-7462.549,8731.310,9200.680,7201.216
9.639465,205,1999,406,12,130,-54,-7470.002,8721.275,9210.409,7193.207
9.659424,180,1956,402,-6,76,-18,-7476.320,8718.295,9215.294,7183.993
9.679443,105,1985,427,-21,59,17,-7481.174,8720.269,9218.129,7172.898,492,191,441
9.699402,124,2032,470,-39,47,37,-7481.776,8726.390,9220.662,7161.561
9.719391,148,2020,417,-65,15,34,-7476.666,8736.022,9223.274,7151.785
9.739380,149,1973,339,-83,-18,27,-7468.782,8748.275,9224.897,7142.946
9.759369,147,2000,372,-90,-29,33,-7462.475,8760.722,9224.072,7135.345
9.779358,153,2030,433,-68,-33,41,-7458.344,8772.036,9221.735,7128.781,488,191,438
9.799347,122,2055,454,-53,-21,47,-7457.370,8781.854,9219.960,7120.004
9.819336,151,2059,453,-49,2,50,-7459.156,8789.806,9220.118,7108.105
9.839325,137,2031,408,-52,33,55,-7464.099,8795.379,9222.144,7093.378
9.859314,175,2029,437,-43,56,55,-7474.448,8797.476,9222.645,7079.215
9.879303,170,1982,392,-4,85,66,-7491.633,8795.425,9221.506,7065.067,490,195,448
9.899292,170,1987,387,33,106,70,-7513.344,8789.702,9219.193,7052.142
9.919281,167,1998,405,58,121,66,-7538.156,8779.916,9216.463,7041.414
9.939239,148,2023,407,84,132,55,-7565.117,8766.174,9214.582,7032.076
9.959228,157,2006,378,99,152,40,-7591.914,8748.699,9215.325,7023.981
9.979217,167,2016,379,101,157,15,-7616.509,8729.131,9218.775,7017.170,496,185,449
9.999206,203,2037,384,89,150,-10,-7638.131,8709.588,9223.571,7011.648
10.019195,218,2097,396,82,143,-20,-7656.238,8692.458,9229.033,7005.967,496,185,449,31375
10.039184,218,2108,391,55,121,-20,-7669.957,8680.145,9234.403,6999.148
10.059173,183,2119,413,28,97,-12,-7678.545,8672.314,9239.625,6992.545
10.079162,199,2069,438,0,71,-11,-7680.230,8669.393,9246.217,6985.599,495,200,441
10.099121,197,2035,439,-42,35,-16,-7674.896,8671.806,9254.135,6977.977
10.119140,186,1992,438,-82,6,-17,-7662.273,8680.491,9262.439,6970.028
10.139129,201,1980,419,-123,-30,-14,-7643.612,8694.334,9271.531,6961.170
10.159088,191,1971,405,-161,-53,-10,-7620.969,8712.248,9280.612,6951.491
10.179077,138,2009,445,-180,-71,-4,-7596.371,8732.323,9289.464,6941.396,502,195,450
10.199066,122,2033,449,-187,-81,-4,-7570.790,8751.548,9299.270,6931.993
10.219055,126,2058,403,-186,-73,-14,-7545.865,8766.275,9311.843,6923.681
10.239044,187,2029,371,-169,-50,-45,-7522.687,8775.011,9325.760,6919.103
10.259033,187,2038,398,-142,-57,-76,-7503.350,8779.775,9337.890,6917.697
10.279022,194,2031,439,-97,-29,-69,-7490.661,8780.999,9347.410,6917.036,501,189,442
10.299011,186,1981,437,-62,-17,-58,-7483.285,8780.328,9352.953,6918.380
10.319000,157,1966,450,-23,-12,-44,-7480.450,8777.724,9355.635,6921.123
10.338989,153,1981,446,4,-5,-37,-7479.503,8773.991,9356.702,6925.437
10.358948,175,2007,464,22,-7,-37,-7479.873,8768.738,9356.627,6931.788
10.378967,202,2007,437,36,-8,-40,-7481.508,8764.202,9355.033,6937.909,495,183,450
10.398926,221,2045,486,34,-11,-22,-7483.167,8763.408,9351.364,6942.068
10.418915,182,2055,458,23,-22,2,-7482.801,8767.421,9346.922,6943.377
10.438904,179,2050,495,-7,-34,17,-7478.362,8775.677,9343.345,6942.544
10.458893,191,2049,525,-40,-51,23,-7468.749,8788.053,9341.316,6939.968
10.478882,181,2032,490,-77,-68,22,-7454.706,8804.168,9340.740,6935.415,494,194,442
10.498871,172,2041,511,-110,-79,25,-7437.159,8822.966,9342.226,6928.361
10.518860,153,2020,504,-139,-78,25,-7417.292,8843.117,9346.190,6918.613,494,194,442,31390
10.538849,144,2020,512,-163,-73,22,-7393.873,8864.142,9353.591,6906.763
10.558868,142,2030,480,-197,-70,8,-7368.389,8883.849,9364.684,6893.634
10.578888,144,1987,500,-204,-59,-12,-7342.761,8900.598,9378.185,6881.009
10.598785,147,1985,515,-193,-47,-29,-7319.501,8912.996,9393.990,6868.172,501,177,456
10.618774,147,1979,529,-185,-19,-44,-7297.990,8922.078,9411.268,6855.606
10.638794,142,1964,475,-175,-5,-53,-7278.582,8928.259,9429.631,6842.947
10.658783,165,1968,479,-160,11,-62,-7262.306,8930.804,9447.746,6831.923
10.678741,138,1988,472,-134,25,-68,-7250.122,8930.027,9464.639,6822.490
10.698730,153,1996,528,-108,32,-71,-7240.629,8926.106,9480.280,6815.985,495,186,471
10.718719,168,1997,527,-74,37,-77,-7231.965,8920.861,9494.749,6811.907
10.738708,188,1998,558,-63,28,-79,-7223.592,8917.042,9507.293,6808.295
10.758697,139,2016,583,-67,16,-68,-7213.336,8915.830,9519.288,6803.994
10.778686,143,2003,580,-83,7,-61,-7198.500,8917.137,9532.292,6799.788
10.798675,149,1965,563,-107,-15,-73,-7179.649,8920.132,9545.915,6796.677,492,183,460
10.818664,123,1966,540,-120,-32,-78,-7160.043,8923.717,9558.766,6794.591
10.838653,129,1968,546,-111,-40,-76,-7139.070,8928.197,9570.668,6794.021
10.858612,135,1984,558,-114,-55,-78,-7118.250,8932.734,9580.622,6795.872
10.878601,121,1982,589,-94,-65,-76,-7099.287,8936.912,9588.448,6799.178
10.898590,115,1962,573,-80,-65,-69,-7081.474,8941.681,9594.122,6803.478,497,181,467
10.918579,120,1966,550,-69,-73,-59,-7065.947,8946.488,9597.715,6808.234
10.938568,151,1987,548,-55,-68,-46,-7052.528,8951.672,9598.916,6813.636
10.958557,138,1960,577,-42,-74,-35,-7041.710,8957.325,9597.969,6818.729
10.978546,143,1980,574,-29,-70,-18,-7033.505,8963.856,9594.836,6823.022
10.998535,118,1971,557,-22,-63,0,-7027.707,8971.168,9590.227,6825.867,485,181,471
11.018524,104,1970,586,-14,-57,14,-7024.298,8978.005,9584.452,6828.497,485,181,471,31369
11.038482,121,1972,538,-5,-50,23,-7022.943,8984.041,9577.990,6831.019
11.058471,114,1996,550,5,-43,25,-7023.925,8989.119,9570.607,6833.675
11.078460,111,1965,577,16,-35,28,-7026.051,8992.679,9563.624,6836.581
11.098449,98,1993,526,24,-28,23,-7028.604,8994.567,9557.650,6839.827,485,181,471
11.118438,107,1974,571,27,-20,13,-7031.246,8994.606,9553.075,6843.451
11.138427,107,2016,604,28,-15,0,-7032.616,8993.535,9550.390,6847.197
11.158417,100,2008,627,19,-13,-11,-7031.283,8992.948,9550.239,6849.548
11.178406,103,2004,606,-7,-13,-21,-7026.921,8993.002,9552.657,6850.581
11.198395,105,2000,608,-26,-15,-29,-7020.378,8993.402,9557.063,6850.620,478,171,478
11.218384,121,1995,564,-39,-15,-39,-7012.782,8993.821,9562.040,6850.903
11.238373,101,1969,558,-40,-15,-41,-7005.841,8993.523,9566.836,6851.701
11.258331,108,1964,583,-33,-17,-44,-6999.580,8992.137,9571.110,6853.949
11.278320,123,1946,576,-15,-15,-46,-6994.905,8989.568,9574.300,6857.635
11.298340,115,1973,575,-1,-18,-43,-6992.582,8987.122,9575.362,6861.728,488,174,478
11.318298,104,1991,589,18,-15,-31,-6993.161,8984.635,9573.967,6866.340
11.338287,112,1937,538,18,-9,-17,-6993.692,8983.356,9571.709,6870.618
11.358276,114,1952,516,28,-20,-9,-6996.228,8982.188,9566.653,6876.603
11.378265,154,1998,518,45,-25,1,-7001.925,8980.628,9557.602,6885.421
11.398254,142,2036,531,87,-33,15,-7015.019,8977.716,9541.291,6898.501,494,177,465
11.418243,136,2033,514,147,-39,42,-7033.235,8974.831,9518.817,6914.735
11.438202,135,2007,537,180,-52,64,-7053.970,8973.193,9491.599,6933.131
11.458221,154,1976,554,199,-66,82,-7075.947,8973.069,9460.740,6953.045
11.478180,183,1964,505,217,-78,100,-7097.599,8976.041,9426.845,6973.147
11.498199,167,1937,489,210,-97,119,-7121.165,8981.269,9389.021,6993.393,490,174,478
11.518158,200,1905,467,223,-105,143,-7146.507,8988.508,9347.389,7013.979,490,174,478,31394
11.538147,212,1959,468,237,-113,165,-7174.566,8996.823,9301.648,7035.449
11.558136,184,2006,496,259,-118,183,-7205.804,9005.643,9252.185,7057.428
11.578125,183,2052,521,272,-118,201,-7237.250,9015.364,9201.468,7079.113
11.598114,173,2112,527,268,-126,205,-7264.499,9027.339,9152.816,7098.985,486,172,475
11.618103,171,2091,567,228,-136,196,-7284.140,9042.098,9108.603,7116.920
11.638092,184,2076,493,175,-150,174,-7294.845,9060.430,9070.182,7131.694
11.658081,203,2038,490,109,-163,154,-7298.861,9081.169,9036.065,7144.505
11.678039,219,1994,444,78,-170,139,-7299.569,9102.923,9004.043,7156.516
11.698028,204,1975,412,63,-175,132,-7300.117,9124.043,8972.438,7168.746,489,185,472
11.718048,220,1965,345,71,-170,128,-7302.882,9142.674,8939.965,7182.749
11.738006,191,1970,366,96,-163,123,-7309.463,9157.208,8906.448,7199.160
11.757995,181,1983,346,129,-148,117,-7320.513,9166.416,8871.973,7218.756
11.777984,186,1990,356,173,-129,106,-7336.077,9169.207,8837.645,7241.482
11.798065,170,2013,384,211,-106,88,-7354.329,9166.503,8805.004,7266.113,488,193,455
11.817962,127,1999,438,224,-88,64,-7368.844,9160.813,8778.233,7290.932
11.837951,113,2018,502,186,-84,22,-7376.282,9153.995,8760.090,7313.760
11.857940,122,2036,540,144,-69,-24,-7374.692,9147.165,8752.434,7333.049
11.877929,119,2043,590,69,-61,-71,-7362.787,9142.350,8756.050,7346.687
11.897918,124,2053,629,-22,-61,-109,-7340.387,9141.925,8769.991,7352.999,497,193,457
11.917907,134,2075,613,-108,-54,-131,-7309.343,9145.996,8791.740,7352.890
11.937896,132,2079,624,-184,-62,-147,-7268.096,9156.344,8818.273,7349.123
11.957885,112,2115,628,-255,-91,-158,-7218.150,9172.913,8848.013,7341.938
11.977844,97,2151,653,-307,-115,-163,-7160.259,9194.594,8879.373,7333.641
11.997833,133,2132,709,-351,-147,-169,-7094.216,9220.855,8910.103,7327.578,490,188,448
12.017822,147,2112,743,-373,-202,-178,-7020.719,9254.026,8939.838,7320.329,490,188,448,31414
12.037811,152,2046,739,-426,-238,-161,-6941.096,9296.570,8966.726,7309.461
12.057800,172,1973,734,-461,-278,-121,-6860.331,9347.705,8986.119,7296.668
12.077789,189,1885,713,-462,-312,-66,-6781.605,9406.100,8995.744,7283.347
12.097778,136,1805,683,-451,-348,-2,-6707.920,9469.273,8994.403,7271.370,497,195,455
12.117767,148,1769,656,-403,-370,57,-6642.350,9533.567,8980.542,7264.681
12.137756,114,1754,670,-321,-393,108,-6587.658,9594.934,8955.025,7265.188
12.157745,87,1756,718,-228,-392,143,-6543.605,9650.949,8921.812,7271.665
12.177704,95,1797,747,-150,-382,159,-6507.782,9701.509,8884.916,7281.701
12.197693,68,1813,746,-99,-351,165,-6479.060,9746.603,8848.059,7291.967,486,180,454
12.217682,82,1881,776,-69,-313,163,-6456.325,9785.644,8813.741,7301.400
12.237671,30,1913,776,-45,-268,148,-6438.903,9818.152,8782.587,7310.678
12.257660,33,1971,784,-20,-228,128,-6424.384,9843.781,8756.317,7320.492
12.277649,-4,1978,826,-6,-192,92,-6410.212,9863.017,8736.432,7330.775
12.297638,-9,1983,859,-10,-165,46,-6393.226,9876.256,8725.540,7340.750,477,163,470
12.317627,-1,1980,823,-23,-138,-11,-6372.483,9884.056,8723.508,7350.696
12.337616,-11,1961,850,-44,-117,-64,-6349.729,9887.759,8727.791,7360.317
12.357574,-13,1957,804,-49,-101,-97,-6325.205,9888.545,8736.179,7370.418
12.377563,38,1936,808,-56,-97,-124,-6299.446,9887.122,8746.519,7382.116
12.397583,15,1937,802,-52,-98,-137,-6273.983,9885.481,8757.001,7393.562,480,166,471
12.417541,51,1910,826,-48,-96,-131,-6249.763,9885.690,8765.097,7404.194
12.437530,56,1914,813,-49,-97,-106,-6228.820,9888.267,8768.721,7414.104
12.457519,75,1884,821,-37,-105,-71,-6211.313,9894.943,8766.805,7422.145
12.477539,63,1885,817,-33,-110,-22,-6197.159,9907.048,8758.789,7427.292
12.497497,73,1889,803,-32,-116,33,-6186.606,9924.330,8746.038,7428.042,467,175,489
12.517486,66,1885,826,-45,-112,80,-6179.836,9945.608,8729.127,7425.111,467,175,489,31388
12.537475,56,1889,826,-42,-103,121,-6175.843,9969.064,8709.733,7419.750
12.557434,48,1895,851,-41,-96,141,-6174.008,9993.215,8690.544,7411.285
12.577453,61,1910,877,-53,-79,154,-6173.210,10017.358,8673.091,7399.793
12.597442,84,1904,900,-64,-58,154,-6174.374,10040.811,8657.419,7385.375,463,159,483
12.617431,70,1902,884,-70,-38,156,-6176.621,10064.340,8643.607,7367.625
12.637420,63,1899,852,-84,-24,161,-6178.654,10087.726,8631.429,7348.188
12.657379,74,1877,842,-86,-14,152,-6182.023,10108.566,8620.450,7329.581
12.677368,85,1881,830,-75,-2,139,-6186.030,10125.291,8612.023,7313.001
12.697357,97,1874,818,-56,5,113,-6191.407,10137.665,8605.591,7298.866,462,170,489
12.717346,102,1869,822,-38,16,90,-6198.193,10145.854,8600.618,7287.582
12.737335,66,1865,817,-14,30,71,-6205.973,10149.471,8597.827,7279.213
12.757324,55,1884,834,5,42,44,-6214.785,10147.870,8597.792,7273.966
12.777313,84,1900,804,25,53,15,-6224.683,10141.454,8600.563,7271.175
12.797302,95,1906,779,45,68,-12,-6236.698,10130.480,8605.618,7270.194,472,175,489
12.817291,92,1907,799,60,88,-29,-6250.774,10116.065,8612.481,7270.051
12.837280,110,1895,764,77,102,-41,-6266.316,10098.914,8620.623,7270.866
12.857269,77,1900,763,82,113,-51,-6282.888,10080.129,8630.237,7271.229
12.877228,85,1942,787,86,124,-57,-6299.538,10060.383,8641.112,7271.253
12.897247,127,1929,766,81,132,-61,-6315.416,10040.178,8653.538,7270.630,466,179,488
12.917206,113,1923,781,68,134,-68,-6330.595,10021.174,8667.357,7267.186
12.937195,114,1944,814,51,141,-63,-6344.395,10004.665,8681.538,7260.968
12.957184,126,1926,796,28,139,-54,-6356.154,9991.069,8696.298,7251.735
12.977173,154,1926,794,2,132,-45,-6365.778,9980.809,8710.645,7240.193
12.997162,126,1884,789,-20,122,-33,-6373.379,9974.282,8723.851,7226.588,481,170,477
13.017212,135,1909,787,-41,102,-17,-6378.796,9971.347,8735.522,7211.746,481,170,477,31394
13.037109,155,1899,821,-50,96,-3,-6383.484,9971.294,8745.449,7195.622
13.057098,179,1875,823,-65,82,13,-6386.177,9975.734,8753.609,7177.132
13.077087,172,1893,829,-90,65,35,-6387.088,9985.224,8760.125,7155.141
13.097107,187,1919,756,-112,60,60,-6388.322,9998.264,8764.153,7130.855,474,163,496
13.117065,225,1919,728,-112,54,84,-6393.318,10012.091,8763.512,7107.729
13.137054,217,1933,690,-79,52,110,-6404.856,10024.687,8756.662,7088.001
13.157043,236,1932,631,-26,54,136,-6425.500,10033.647,8743.044,7073.435
13.177032,199,1928,541,51,62,159,-6458.157,10034.969,8721.860,7067.970
13.197021,227,1918,518,167,81,165,-6504.745,10024.759,8694.017,7074.036,488,181,485
13.217010,236,1909,486,291,103,156,-6560.320,10003.578,8661.946,7092.020
13.236999,219,1921,387,388,104,126,-6620.821,9972.901,8626.854,7121.713
13.256988,258,1971,422,465,100,90,-6684.001,9933.943,8590.734,7160.700
13.276977,230,2020,383,516,100,55,-6747.331,9889.201,8556.244,7204.397
13.296966,253,2018,335,531,106,24,-6809.504,9840.538,8524.779,7249.692,490,176,490
13.316955,250,2044,218,530,117,-4,-6871.270,9788.509,8497.077,7294.234
13.336914,262,2103,232,520,139,-25,-6933.670,9732.931,8474.244,7336.000
13.356903,232,2099,247,509,174,-43,-6995.938,9674.070,8456.973,7374.568
13.376892,219,2121,211,487,205,-67,-7056.151,9613.090,8447.576,7407.640
13.396881,220,2088,204,440,242,-91,-7112.788,9551.118,8447.234,7433.981,490,179,490
13.416870,234,2102,216,384,275,-118,-7163.084,9490.264,8457.597,7451.818
13.436859,230,2134,246,300,302,-143,-7206.498,9432.921,8477.197,7460.492
13.456848,254,2111,273,216,317,-154,-7240.688,9382.254,8504.691,7459.987
13.476837,278,2099,334,121,308,-159,-7263.352,9341.631,8537.080,7451.935
13.496917,269,2119,341,23,262,-153,-7274.135,9312.683,8573.462,7435.863,500,183,464
13.516784,254,2077,338,-77,239,-142,-7276.834,9293.088,8612.714,7412.340
13.536773,294,2039,328,-150,215,-126,-7270.945,9282.769,8653.514,7383.474,500,183,464,31394
13.556762,329,2002,336,-212,186,-110,-7260.909,9279.749,8692.992,7350.699
13.576782,262,1990,391,-245,169,-80,-7249.385,9282.397,8730.359,7314.354
13.596740,260,1985,415,-268,155,-53,-7236.543,9289.396,8766.681,7274.634,496,187,444
13.616729,262,2008,434,-287,149,-29,-7222.645,9300.746,8801.934,7231.246
13.636749,260,1998,505,-312,144,-10,-7208.558,9314.296,8835.825,7186.390
13.656708,251,2017,464,-312,138,3,-7193.359,9328.717,8869.324,7141.508
13.676697,242,1983,466,-310,129,1,-7178.319,9342.234,8900.684,7099.834
13.696686,237,1969,471,-289,116,-3,-7164.706,9353.666,8928.945,7062.951,490,188,455
13.716675,236,1999,433,-250,105,-10,-7152.532,9362.299,8954.415,7031.537
13.736664,236,1986,503,-213,89,-21,-7142.446,9367.061,8976.362,7007.422
13.756622,230,2023,495,-164,74,-36,-7133.836,9368.261,8995.562,6989.946
13.776642,216,2007,492,-125,63,-53,-7125.854,9365.742,9013.098,6978.866
13.796631,192,2001,460,-86,52,-75,-7118.301,9358.944,9029.803,6974.097,490,188,455
13.816589,178,2003,480,-60,41,-101,-7110.545,9348.154,9046.585,6974.733
13.836578,192,1979,482,-30,35,-127,-7103.255,9333.416,9063.115,6980.436
13.856567,183,1966,446,-4,28,-148,-7095.835,9315.914,9079.170,6990.492
13.876556,162,1981,430,16,22,-163,-7087.607,9296.130,9095.239,7004.274
13.896545,158,1994,456,25,8,-183,-7077.497,9275.961,9110.296,7021.647,494,192,458
13.916534,176,1958,444,28,-11,-189,-7065.240,9258.190,9123.047,7040.861
13.936523,164,1992,421,32,-41,-178,-7050.653,9244.438,9131.366,7062.735
13.956512,180,2000,428,34,-79,-158,-7034.764,9235.464,9133.341,7087.722
13.976471,207,2003,442,43,-125,-134,-7017.045,9233.196,9127.679,7115.482
13.996490,227,1992,458,50,-174,-96,-6997.577,9238.962,9113.538,7145.232,513,185,468
14.016479,225,1996,482,45,-232,-49,-6976.087,9253.833,9090.681,7176.052
14.036438,218,2025,531,43,-284,0,-6949.786,9279.352,9059.379,7208.133,513,185,468,31447
14.056427,214,2033,571,17,-363,44,-6913.395,9318.416,9019.539,7242.612
14.076416,262,2020,601,-22,-467,80,-6864.013,9372.825,8970.029,7280.761
14.096405,265,2002,632,-65,-588,119,-6800.821,9443.497,8910.332,7321.926,497,181,455
14.116394,186,1995,638,-117,-703,161,-6723.397,9529.142,8839.562,7368.104
14.136383,154,2008,691,-140,-847,190,-6628.765,9627.043,8754.933,7427.388
14.156372,208,1997,746,-150,-1008,192,-6517.647,9735.565,8658.905,7496.522
14.176361,151,1968,666,-169,-1133,203,-6394.816,9854.483,8552.628,7568.585
14.196350,57,1965,689,-196,-1222,242,-6266.453,9979.535,8434.220,7644.593,496,197,465
14.216308,18,1902,687,-176,-1291,276,-6134.011,10105.784,8307.833,7724.142
14.236389,-37,1948,699,-164,-1331,280,-5999.206,10229.135,8178.583,7805.160
14.256317,-96,1955,759,-153,-1319,269,-5862.349,10347.281,8048.889,7887.803
14.276306,-108,1950,785,-140,-1339,242,-5719.804,10460.691,7923.077,7969.822
14.296295,-73,1913,748,-166,-1317,201,-5573.785,10570.550,7803.151,8046.283,483,186,469
14.316253,-94,1888,687,-193,-1279,178,-5432.430,10675.470,7687.668,8115.308
14.336242,-138,1875,626,-189,-1226,183,-5302.631,10771.866,7573.230,8181.114
14.356231,-146,1848,722,-135,-1134,205,-5192.118,10856.266,7458.749,8245.355
14.376220,-200,1891,763,-48,-1029,232,-5097.279,10929.853,7348.611,8305.986
14.396209,-228,1895,771,-16,-941,220,-5012.372,10993.379,7247.640,8362.349,481,177,472
14.416198,-163,1917,792,8,-842,198,-4936.245,11048.449,7155.097,8414.586
14.436187,-139,1923,771,16,-755,174,-4867.451,11097.233,7072.182,8460.437
14.456177,-104,1911,747,16,-680,163,-4808.350,11141.235,6991.891,8503.032
14.476135,-176,1925,748,43,-622,183,-4761.414,11180.068,6914.693,8541.514
14.496155,-159,1932,712,71,-548,196,-4724.176,11211.332,6840.341,8580.987,451,174,481
14.516113,-157,1953,718,113,-492,189,-4696.473,11235.451,6771.901,8618.850
14.536102,-130,1940,686,133,-414,183,-4678.574,11254.025,6708.839,8653.600,451,174,481,31429
14.556091,-49,1945,648,153,-350,185,-4668.574,11269.764,6648.577,8684.969
14.576080,19,1941,620,158,-301,201,-4668.127,11283.942,6586.361,8714.157
14.596069,58,1957,666,186,-275,244,-4675.903,11298.116,6516.690,8743.952,449,176,481
14.616058,76,1977,628,217,-277,300,-4686.689,11316.700,6438.023,8772.373
14.636047,93,1990,662,208,-302,353,-4695.240,11341.769,6351.951,8798.132
14.656036,115,2012,674,175,-348,387,-4699.582,11374.182,6260.504,8819.491
14.676025,74,2001,640,138,-385,421,-4699.172,11413.121,6163.916,8837.421
14.696014,80,1994,589,96,-413,439,-4695.372,11454.886,6066.069,8853.096,439,174,478
14.715973,83,1954,630,85,-429,436,-4686.427,11496.059,5969.143,8870.332
14.735962,41,1956,626,85,-451,402,-4670.815,11535.001,5876.000,8890.179
14.755951,45,1937,626,76,-470,353,-4643.926,11572.448,5785.153,8915.146
14.775940,33,1969,611,88,-503,295,-4606.800,11607.241,5701.187,8943.222
14.795929,21,1928,653,55,-540,218,-4556.738,11639.343,5626.196,8974.586,440,177,475
14.815918,-26,1954,626,49,-553,126,-4500.128,11665.517,5561.463,9009.446
14.835907,40,1951,630,56,-540,55,-4435.844,11688.190,5505.510,9046.230
14.855896,-87,1916,591,35,-535,-19,-4379.171,11700.148,5468.210,9080.942
14.875885,-164,1955,616,68,-435,-80,-4325.184,11703.336,5442.893,9117.843
14.895874,-177,1974,545,77,-328,-137,-4277.605,11698.292,5436.344,9150.610,448,180,472
14.915863,-180,1985,540,67,-236,-201,-4233.834,11687.140,5446.536,9179.111
14.935852,-118,1956,466,44,-142,-259,-4196.074,11669.571,5470.601,9204.456
14.955841,-143,1945,518,54,-73,-295,-4165.634,11647.852,5500.046,9228.216
14.975799,-147,1943,492,70,-25,-286,-4141.096,11625.051,5529.643,9250.296
14.995819,-142,1962,505,78,-5,-263,-4121.673,11602.331,5557.590,9270.725,446,183,457
15.015777,-149,1982,555,78,8,-238,-4107.687,11581.547,5582.751,9287.787
15.035766,-143,2048,583,77,30,-195,-4099.319,11564.457,5606.212,9298.641,446,183,457,31410
15.055755,-114,2068,594,41,56,-154,-4095.337,11553.307,5628.814,9300.602
15.075744,-130,2093,574,-13,67,-112,-4092.939,11548.820,5649.538,9294.663
15.095733,-144,2072,583,-58,77,-80,-4092.683,11548.685,5670.495,9282.173,438,180,456
15.115722,-136,2052,599,-92,96,-61,-4093.244,11552.999,5691.747,9263.531
15.135711,-159,2075,629,-127,105,-41,-4093.455,11561.054,5712.673,9240.479
15.155700,-175,2031,670,-156,99,-30,-4091.888,11571.766,5735.919,9213.325
15.175659,-177,1974,668,-188,111,-41,-4087.257,11583.685,5761.471,9184.413
15.195648,-159,1917,656,-201,100,-53,-4081.151,11596.372,5786.542,9155.311,422,183,455
15.215637,-184,1883,625,-200,94,-49,-4076.879,11607.509,5810.501,9127.885
15.235626,-226,1832,584,-175,105,-45,-4077.786,11614.816,5836.750,9101.399
15.255615,-185,1795,607,-153,153,-50,-4088.329,11615.000,5869.207,9075.526
15.275604,-164,1822,516,-105,226,-61,-4109.289,11606.360,5906.839,9052.669
15.295593,-146,1858,514,-52,284,-73,-4139.621,11588.719,5947.654,9034.708,426,180,458
15.315582,-114,1887,518,11,333,-83,-4176.878,11562.371,5993.092,9021.283
15.335571,-31,1941,499,57,381,-111,-4220.517,11527.848,6043.270,9011.673
15.355560,-1,2024,491,101,417,-130,-4266.513,11489.106,6093.164,9005.892
15.375549,-23,2082,476,130,403,-135,-4308.483,11449.346,6139.882,9004.816
15.395508,-24,2110,493,139,358,-150,-4343.562,11409.689,6184.053,9008.073,429,174,462
15.415497,8,2153,465,146,317,-167,-4374.074,11370.228,6226.251,9014.134
15.435486,-14,2137,488,148,291,-169,-4402.862,11332.672,6263.412,9021.665
15.455536,-19,2118,458,148,260,-143,-4431.263,11298.184,6295.235,9028.864
15.475464,-35,2109,417,145,249,-117,-4463.174,11266.123,6324.158,9032.995
15.495453,-27,2078,397,136,262,-83,-4500.608,11235.382,6351.428,9033.576,425,162,476
15.515442,-17,2050,368,130,293,-50,-4545.247,11206.139,6380.096,9027.346
15.535431,-30,1980,345,112,346,-19,-4598.990,11176.995,6411.162,9014.239,425,162,476,31429
15.555420,-23,1942,339,103,405,11,-4660.633,11146.486,6445.439,8995.892
15.575409,45,1919,341,106,461,20,-4729.195,11113.059,6483.242,8974.276
15.595398,65,1886,284,110,503,26,-4802.229,11077.872,6524.095,8949.356,426,165,477
15.615387,90,1878,269,101,538,27,-4878.264,11041.905,6566.055,8921.952
15.635345,145,1893,252,104,551,35,-4955.467,11004.588,6606.713,8895.456
15.655365,183,1913,242,121,545,36,-5033.670,10966.301,6643.674,8871.269
15.675323,182,1986,278,141,523,49,-5109.948,10929.112,6675.687,8849.495
15.695312,182,2048,268,146,496,56,-5182.022,10893.248,6703.839,8830.502,440,175,472
15.715301,186,2128,291,148,455,51,-5246.588,10858.161,6730.221,8815.509
15.735290,216,2148,307,146,406,22,-5300.561,10824.531,6755.720,8805.070
15.755279,234,2121,283,126,343,-14,-5341.233,10795.774,6778.148,8798.559
15.775268,235,2120,296,102,255,-35,-5370.103,10773.042,6794.702,8796.079
15.795257,228,2098,270,86,176,-37,-5389.638,10755.961,6804.687,8797.316,446,174,467
15.815246,242,2129,344,71,106,-28,-5401.229,10744.961,6808.884,8800.401
15.835235,170,2099,322,44,39,-23,-5401.310,10742.693,6808.572,8803.362
15.855224,235,2069,331,-3,-33,-19,-5393.077,10747.939,6803.524,8805.908
15.875213,220,2054,338,-35,-84,-5,-5379.571,10759.161,6792.582,8808.911
15.895202,174,2020,369,-44,-136,17,-5363.481,10774.206,6774.852,8813.987,452,172,458
15.915161,107,2008,444,-35,-159,39,-5350.780,10788.480,6758.837,8816.541
15.935150,105,2007,467,-41,-114,42,-5343.527,10799.787,6750.600,8813.406
15.955139,138,1991,458,-57,-41,30,-5340.516,10809.180,6751.523,8803.003
15.975128,141,1961,553,-88,18,18,-5341.439,10817.376,6760.401,8785.546
15.995117,119,1929,505,-115,71,11,-5343.392,10825.569,6775.872,8762.317,460,175,463
16.015106,81,1894,504,-142,107,-3,-5347.470,10830.778,6798.477,8735.843
16.035095,105,1893,471,-152,153,-28,-5352.489,10831.704,6829.229,8707.589,460,175,463,31435
16.055084,100,1917,459,-152,189,-64,-5359.057,10827.390,6866.188,8679.805
16.075073,75,1908,479,-138,223,-98,-5368.163,10816.190,6909.362,8653.842
16.095062,90,1966,503,-113,264,-136,-5380.039,10796.835,6960.552,8629.581,469,177,465
16.115051,73,2034,497,-89,307,-179,-5392.946,10770.605,7017.976,8607.766
16.135040,61,2047,462,-72,330,-223,-5403.263,10740.551,7078.929,8588.917
16.154999,51,2065,445,-69,320,-256,-5410.388,10706.430,7141.947,8574.851
16.174988,26,2073,417,-47,307,-293,-5415.189,10666.997,7205.793,8567.548
16.195007,61,2095,437,-4,297,-326,-5420.934,10622.094,7269.318,8566.040,456,179,462
16.214966,18,2118,455,31,298,-337,-5428.398,10575.898,7329.089,8567.541
16.234955,7,2110,428,49,282,-318,-5435.772,10532.268,7384.348,8569.163
16.254944,-24,2073,439,45,266,-292,-5444.247,10491.377,7436.547,8568.802
16.274933,-34,2016,406,40,269,-265,-5457.064,10451.742,7486.228,8565.825
16.294922,-63,1964,408,44,284,-235,-5475.680,10412.659,7534.013,8559.646,457,180,468
16.314880,-55,1914,345,53,314,-200,-5501.096,10372.966,7580.373,8550.608
16.334900,-66,1875,345,66,342,-171,-5533.695,10331.948,7624.607,8539.899
16.354889,-37,1873,313,92,365,-146,-5573.234,10288.791,7666.687,8528.609
16.374847,-24,1909,336,119,391,-123,-5617.802,10244.467,7705.858,8517.416
16.394836,-20,1923,310,139,395,-101,-5665.643,10200.112,7741.671,8506.478,460,177,477
16.414825,-19,1970,318,150,394,-84,-5716.290,10154.994,7776.293,8494.989
16.434814,-28,1981,258,156,410,-75,-5768.593,10108.848,7811.500,8482.359
16.454803,-24,2040,331,156,421,-77,-5821.890,10060.454,7849.237,8468.635
16.474792,-45,2058,282,156,444,-93,-5875.730,10008.987,7891.970,8452.704
16.494781,-49,2092,292,150,476,-113,-5929.287,9953.896,7940.690,8434.713,456,171,474
16.514770,-73,2086,315,135,503,-143,-5980.355,9895.592,7995.327,8415.627
16.534759,-57,2083,331,121,518,-179,-6027.867,9834.538,8055.197,8396.184,456,171,474,31482
16.554718,-32,2089,290,108,524,-213,-6072.411,9771.624,8118.655,8376.399
16.574737,47,2083,244,95,536,-236,-6117.011,9708.306,8183.576,8354.369
16.594696,58,2114,294,86,540,-220,-6162.639,9649.473,8244.018,8329.534,461,179,474
16.614715,-3,2078,249,81,520,-179,-6210.294,9596.430,8297.253,8302.518
16.634674,7,2094,296,78,499,-127,-6259.156,9547.477,8344.723,8274.641
16.654663,11,2045,276,75,486,-97,-6309.177,9500.000,8391.069,8244.372
16.674713,11,2061,272,75,496,-86,-6361.059,9451.053,8438.445,8212.344
16.694641,-24,2062,269,75,521,-91,-6414.252,9398.584,8490.121,8177.852,461,181,464
16.714630,-26,2057,273,69,561,-112,-6468.237,9340.845,8549.132,8139.919
16.734619,9,2107,292,57,600,-144,-6520.233,9279.738,8612.733,8101.189
16.754608,24,2120,271,51,602,-171,-6568.755,9217.835,8676.347,8064.701
16.774566,57,2135,257,55,576,-183,-6616.102,9156.984,8737.306,8029.431
16.794586,33,2149,252,53,570,-169,-6666.037,9097.403,8795.668,7992.050,475,186,464
16.814575,16,2173,163,61,581,-142,-6723.545,9036.374,8851.647,7951.205
16.834564,14,2174,153,86,622,-108,-6789.260,8972.143,8907.953,7905.086
16.854522,-24,2123,205,99,682,-85,-6863.716,8901.338,8968.362,7852.355
16.874511,-56,2082,190,114,760,-89,-6944.557,8822.199,9036.441,7792.309
16.894500,-37,2050,153,106,853,-110,-7028.673,8733.858,9115.907,7723.545,489,187,468
16.914490,-21,1954,230,84,943,-149,-7115.353,8635.485,9206.185,7647.335
16.934479,8,1996,119,71,1021,-186,-7202.810,8529.636,9308.064,7560.437
16.954468,1,1954,222,19,1113,-219,-7291.015,8415.960,9419.318,7464.890
16.974457,10,1981,158,6,1181,-242,-7381.258,8295.858,9538.606,7358.409
16.994415,153,2066,183,-34,1263,-247,-7472.185,8172.615,9665.337,7238.196,489,187,468
17.014435,101,2095,251,-106,1345,-231,-7562.455,8050.818,9800.905,7097.273
17.034424,78,2159,193,-183,1419,-203,-7652.013,7930.531,9941.746,6939.055,489,187,468,31462
17.054413,106,2149,355,-232,1484,-170,-7743.305,7807.244,10084.110,6770.104
17.074371,147,2136,384,-277,1543,-153,-7830.675,7681.448,10232.592,6588.276
17.094360,121,2137,233,-273,1557,-166,-7914.364,7554.525,10377.542,6405.783,497,179,457
17.114349,267,1993,393,-330,1546,-166,-7994.024,7427.933,10513.123,6231.457
17.134338,84,2018,218,-267,1464,-159,-8067.786,7306.440,10647.340,6049.491
17.154327,262,1971,406,-315,1479,-128,-8143.984,7186.103,10769.951,5871.884
17.174316,160,2030,341,-298,1460,-96,-8215.804,7068.257,10893.364,5684.220
17.194305,133,2079,377,-295,1459,-84,-8285.030,6950.003,11011.026,5499.860,506,185,449
17.214294,92,2050,413,-326,1446,-87,-8347.894,6832.452,11125.323,5319.105
17.234253,275,2022,481,-326,1405,-97,-8403.261,6717.421,11236.580,5141.612
17.254242,264,2033,477,-319,1344,-103,-8460.108,6601.917,11340.529,4966.798
17.274231,315,2077,410,-268,1339,-78,-8517.870,6488.888,11440.217,4785.090
17.294220,270,2047,434,-274,1341,-35,-8582.909,6377.188,11528.349,4604.100,520,182,451
17.314209,210,2068,310,-192,1346,2,-8648.360,6268.181,11611.157,4419.531
17.334198,180,1949,442,-248,1341,31,-8715.899,6158.512,11685.428,4241.701
17.354187,209,1888,354,-165,1297,22,-8780.921,6045.953,11754.934,4074.168
17.374176,189,1855,379,-121,1234,-32,-8844.785,5928.949,11816.392,3927.549
17.394165,137,1807,323,-62,1155,-105,-8903.171,5806.745,11874.093,3802.184,544,187,442
17.414154,141,1834,233,-27,1057,-197,-8954.445,5680.168,11930.183,3695.911
17.434143,171,1855,293,-3,983,-274,-9005.640,5551.130,11979.314,3607.613
17.454132,152,1847,309,33,924,-308,-9054.161,5421.930,12025.602,3527.771
17.474121,161,1972,229,55,877,-328,-9100.912,5293.941,12067.924,3456.618
17.494079,125,2053,247,88,822,-345,-9148.517,5167.250,12103.696,3397.076,564,189,454
17.514068,149,2143,229,130,755,-364,-9194.345,5044.210,12133.440,3351.871
17.534057,170,2191,242,165,668,-384,-9239.991,4927.383,12155.371,3320.517,564,189,454,31429
17.554046,148,2237,200,200,577,-381,-9284.483,4819.797,12169.948,3300.865
17.574035,154,2300,191,225,486,-365,-9327.128,4723.412,12177.303,3292.839
17.594024,92,2242,196,247,391,-343,-9368.980,4637.150,12178.169,3293.433,584,183,429
17.614013,39,2254,120,258,323,-315,-9409.091,4558.890,12175.762,3297.236
17.634002,-32,2223,54,256,293,-291,-9447.357,4484.032,12171.940,3304.575
17.653991,-47,2115,-9,258,260,-295,-9486.776,4409.832,12165.623,3314.742
17.673950,-22,2057,-13,271,249,-296,-9524.535,4336.348,12158.558,3329.298
17.693969,21,2066,-102,269,222,-308,-9560.543,4265.801,12150.727,3345.778,595,187,416
17.713928,79,2116,-106,251,201,-296,-9594.494,4201.017,12142.252,3361.293
17.733917,70,2081,-138,243,187,-265,-9628.137,4143.601,12132.086,3373.052
17.753937,58,2073,-159,231,174,-215,-9660.031,4094.429,12121.034,3381.628
17.773926,91,2156,-155,207,156,-173,-9689.037,4053.192,12110.670,3385.453
17.793884,121,2146,-160,172,150,-128,-9715.757,4018.870,12101.227,3383.560,592,191,408
17.813873,191,2206,-196,152,145,-83,-9741.231,3994.230,12090.639,3377.339
17.833862,296,2208,-172,125,123,-22,-9765.982,3982.029,12078.399,3364.038
17.853851,297,2249,-143,110,112,61,-9790.962,3983.577,12064.283,3340.161
17.873840,360,2303,-152,70,108,159,-9812.961,3997.625,12051.434,3305.018
17.893890,354,2300,-148,49,114,238,-9839.097,4020.437,12033.510,3264.709,582,205,387
17.913788,334,2229,-161,51,100,297,-9860.811,4051.431,12017.987,3217.721
17.933807,342,2212,-144,-6,98,337,-9875.506,4087.343,12007.020,3167.793
17.953766,425,2208,-69,-61,80,344,-9878.354,4128.121,12003.748,3118.043
17.973755,474,2161,-80,-153,52,335,-9870.996,4173.602,12007.329,3066.587
17.993774,521,2123,-107,-211,21,335,-9859.017,4225.352,12012.179,3014.822,570,220,378
18.013733,492,2028,-52,-234,22,366,-9846.972,4281.153,12015.397,2962.182
18.033722,491,2010,-64,-226,12,390,-9832.060,4338.580,12020.526,2906.837,570,220,378,31456
18.053711,490,2007,-9,-251,13,391,-9813.988,4396.124,12027.146,2853.580
18.073700,485,2019,-53,-266,-13,375,-9792.759,4452.865,12035.951,2800.921
18.093689,528,2055,30,-300,-1,368,-9768.427,4507.884,12046.947,2750.150,577,225,371
18.113678,510,2092,70,-288,-9,338,-9743.895,4559.230,12058.051,2703.475
18.133636,489,2109,98,-283,-13,306,-9722.867,4603.957,12067.269,2661.931
18.153656,454,2120,115,-230,-4,271,-9708.104,4639.198,12074.158,2623.109
18.173645,404,2127,120,-183,40,229,-9698.345,4661.013,12081.871,2584.739
18.193634,388,2139,105,-161,92,170,-9691.708,4668.164,12092.460,2546.936,583,206,372
18.213623,332,2125,101,-149,151,102,-9686.870,4660.211,12106.822,2511.431
18.233581,322,2068,122,-133,191,25,-9685.503,4637.737,12122.812,2480.985
18.253601,288,2035,68,-92,226,-51,-9688.436,4601.807,12139.043,2456.957
18.273559,263,2010,120,-57,244,-128,-9693.595,4553.643,12156.340,2440.774
18.293548,239,2018,131,-33,252,-206,-9698.588,4495.459,12175.742,2432.070,607,199,374
18.313537,243,2056,134,-26,256,-270,-9701.033,4429.471,12198.562,2429.044
18.333526,243,2112,129,-42,257,-326,-9699.939,4357.133,12225.438,2429.129
18.353515,240,2102,157,-59,265,-365,-9695.891,4281.727,12254.982,2430.508
18.373504,255,2124,192,-77,263,-382,-9687.529,4208.006,12286.631,2432.814
18.393493,285,2131,153,-106,242,-380,-9674.632,4140.582,12319.107,2435.593,622,197,400
18.413482,316,2140,179,-126,206,-348,-9657.780,4085.052,12350.059,2439.491
18.433441,226,2116,230,-143,144,-313,-9640.501,4040.446,12376.438,2448.419
18.453430,270,2098,268,-133,103,-259,-9622.908,4005.005,12400.101,2456.115
18.473419,224,2068,261,-128,66,-216,-9606.318,3977.979,12419.881,2465.018
18.493408,233,2041,311,-105,40,-182,-9594.485,3954.965,12435.021,2471.798,622,192,395
18.513397,315,2032,355,-81,52,-150,-9584.939,3932.519,12449.024,2474.163
18.533386,244,1993,333,-70,59,-137,-9575.560,3912.707,12462.524,2473.921,622,192,395,31453
18.553375,327,2029,322,-79,60,-113,-9566.602,3898.922,12473.770,2473.666
18.573364,315,1995,379,-89,45,-69,-9555.957,3893.565,12485.012,2466.521
18.593353,272,1974,370,-101,36,-10,-9544.132,3896.818,12495.529,2453.882,609,193,380
18.613342,246,2045,495,-121,18,38,-9527.021,3908.343,12507.411,2441.479
18.633331,184,1970,608,-174,-6,57,-9504.256,3923.861,12521.927,2430.886
18.653290,86,1943,665,-177,-42,55,-9477.568,3939.029,12538.902,2423.042
18.673279,46,1915,677,-218,-34,29,-9442.141,3945.569,12565.190,2414.517
18.693268,111,1933,645,-288,-4,-37,-9389.835,3946.913,12604.666,2410.540,603,189,398
18.713257,157,1986,766,-399,-41,-102,-9333.384,3944.900,12646.564,2413.618
18.733246,224,2079,781,-361,-65,-134,-9281.162,3945.098,12682.326,2426.985
18.753235,272,2031,838,-303,-116,-140,-9238.616,3947.483,12709.915,2441.074
18.773224,262,1976,757,-232,-103,-94,-9205.817,3956.580,12728.889,2451.372
18.793213,182,1908,740,-187,-100,-28,-9186.481,3969.895,12738.604,2451.916,593,180,400
18.813202,45,1841,632,-102,-41,50,-9172.911,3981.045,12747.411,2438.838
18.833191,49,1826,494,-120,23,62,-9167.625,3982.069,12753.844,2423.356
18.853180,140,1869,462,-27,96,28,-9182.054,3968.438,12750.822,2406.940
18.873169,219,1902,506,101,150,-2,-9214.496,3946.208,12737.864,2388.045
18.893127,253,1959,506,209,207,11,-9258.964,3922.488,12717.679,2362.569,604,174,403
18.913116,236,2000,481,256,247,51,-9308.772,3900.212,12694.304,2329.205
18.933136,270,2009,392,260,277,86,-9358.317,3878.248,12671.591,2290.701
18.953094,279,2033,260,246,297,95,-9408.109,3854.335,12649.400,2249.375
18.973083,295,2077,169,247,315,88,-9464.823,3825.676,12623.022,2208.180
18.993072,325,2106,80,318,336,77,-9531.018,3791.307,12590.127,2170.209,594,179,415
19.013061,346,2125,4,379,341,53,-9605.506,3751.732,12551.057,2136.620
19.033050,365,2145,-21,446,349,30,-9688.219,3707.717,12505.438,2107.296,594,179,415,31450
19.053039,384,2135,95,505,341,11,-9773.018,3663.670,12456.544,2082.201
19.072998,380,2198,91,500,320,5,-9844.341,3623.645,12415.773,2059.653
19.093017,361,2211,130,385,271,-8,-9896.723,3590.250,12386.860,2041.105,594,179,415
19.113037,391,2165,57,260,214,-23,-9928.171,3565.502,12370.884,2028.615
19.132995,396,2135,11,130,137,-34,-9943.768,3549.427,12364.412,2019.849
19.152954,341,2136,24,38,86,-30,-9948.333,3539.089,12364.922,2012.379
19.172943,348,2106,-1,-34,60,-27,-9943.027,3532.067,12372.265,2005.794
19.192932,326,2121,-74,-94,40,-31,-9931.896,3525.398,12384.111,1999.555,610,177,395
19.212921,318,2127,-39,-128,44,-42,-9918.997,3515.773,12398.349,1992.290
19.232910,304,2138,-2,-144,65,-54,-9903.771,3501.117,12416.354,1981.686
19.252899,310,2147,72,-160,94,-74,-9886.915,3481.798,12437.343,1968.230
19.272888,358,2162,108,-177,124,-89,-9868.668,3458.755,12460.825,1951.836
19.292877,340,2125,146,-193,149,-97,-9848.245,3433.935,12486.532,1934.449,610,194,381
19.312866,294,2100,134,-211,153,-105,-9825.801,3406.124,12514.656,1915.921
19.332855,266,2079,118,-219,171,-120,-9804.042,3373.862,12543.317,1896.954
19.352813,315,2066,99,-207,191,-140,-9785.596,3335.708,12570.740,1878.057
19.372802,267,2097,144,-181,204,-162,-9768.556,3293.780,12597.884,1858.780
19.392792,315,2096,228,-180,223,-172,-9751.879,3251.493,12624.176,1842.355,616,193,382
19.412781,293,2111,231,-181,206,-179,-9730.692,3211.337,12653.094,1826.362
19.432770,295,2115,302,-211,188,-175,-9704.078,3176.576,12684.051,1813.975
19.452759,283,2114,416,-245,140,-170,-9671.070,3147.713,12717.865,1803.790
19.472748,241,2068,390,-284,111,-156,-9628.584,3126.124,12756.310,1797.138
19.492737,255,2040,338,-348,60,-146,-9579.754,3110.390,12797.283,1794.087,607,192,388
19.512726,245,2025,295,-365,21,-140,-9531.346,3098.329,12835.985,1796.304
19.532715,270,1982,319,-332,-22,-137,-9490.041,3089.618,12867.426,1805.032,607,192,388,31472
19.552704,240,2010,304,-266,-41,-132,-9461.480,3081.131,12889.236,1813.851
19.572662,225,2056,302,-159,-39,-109,-9445.915,3072.885,12901.258,1823.472
19.592651,220,2066,378,-81,-24,-93,-9440.229,3064.535,12906.000,1833.386,609,191,385
19.612640,203,2095,355,-26,-24,-81,-9437.899,3057.279,12908.127,1842.500
19.632629,206,2109,314,-11,-19,-67,-9438.573,3050.072,12908.394,1849.105
19.652618,199,2077,251,0,-2,-54,-9442.594,3042.536,12906.657,1853.110
19.672607,196,2049,189,24,11,-46,-9452.758,3033.334,12901.238,1854.112
19.692596,193,2041,136,77,39,-36,-9472.747,3021.527,12889.668,1851.842,603,192,395
19.712585,227,2061,121,136,71,-21,-9503.721,3007.883,12870.698,1847.295
19.732574,224,2109,79,209,88,-6,-9544.506,2993.867,12844.585,1841.530
19.752563,249,2116,134,276,97,8,-9593.339,2980.076,12812.187,1835.832
19.772552,247,2169,97,320,93,18,-9645.117,2969.048,12776.567,1830.640
19.792541,248,2175,66,335,83,38,-9696.592,2961.271,12739.922,1826.690,598,197,405
19.812530,230,2176,25,330,61,45,-9745.570,2955.491,12703.940,1825.998
19.832489,238,2146,7,315,39,33,-9792.441,2950.452,12668.556,1829.220
19.852508,236,2150,-38,308,17,22,-9838.798,2945.831,12632.699,1835.888
19.872467,237,2156,-11,315,3,15,-9883.890,2941.955,12597.060,1844.759
19.892456,248,2138,-26,301,-12,8,-9923.690,2939.752,12564.564,1856.181,596,198,399
19.912445,230,2154,-16,259,-33,0,-9956.584,2939.611,12536.434,1870.398
19.932434,246,2142,-23,219,-58,-9,-9983.451,2941.585,12512.008,1887.558
19.952423,284,2152,-83,175,-84,-18,-10003.521,2946.956,12491.740,1907.059
19.972412,290,2175,-49,140,-109,-16,-10019.629,2956.935,12473.156,1928.565
19.992401,308,2197,2,116,-138,-6,-10032.239,2972.148,12455.870,1951.218,607,209,398
20.012359,348,2189,-24,98,-165,11,-10041.096,2993.434,12439.810,1975.419
20.032348,344,2189,-25,76,-195,26,-10046.752,3020.344,12424.961,1999.015,607,209,398,31456
20.052337,308,2154,-24,52,-209,50,-10050.345,3050.663,12411.243,2020.028
20.072357,283,2118,25,35,-204,70,-10051.988,3080.918,12399.604,2037.336
20.092315,303,2049,19,18,-182,77,-10051.339,3108.980,12390.927,2050.653,593,199,381
20.112304,340,2059,30,-7,-157,73,-10047.645,3133.711,12386.281,2059.167
20.132293,358,2129,21,-41,-122,66,-10042.092,3155.438,12384.999,2060.782
20.152282,382,2179,42,-58,-79,78,-10037.855,3174.262,12384.685,2054.391
20.172271,353,2185,12,-58,-30,97,-10036.161,3190.345,12384.326,2039.870
20.192260,331,2177,-13,-52,16,112,-10037.926,3201.108,12383.480,2019.360,600,218,379
20.212250,341,2146,12,-33,69,106,-10045.187,3203.260,12380.918,1995.407
20.232239,303,2095,-29,2,117,81,-10057.666,3195.312,12376.856,1970.330
20.252228,337,2106,-51,33,157,41,-10073.334,3177.301,12372.496,1946.658
20.272217,342,2060,-125,57,189,-6,-10093.795,3150.105,12366.070,1925.587
20.292206,313,2022,-95,97,212,-46,-10118.788,3115.112,12357.310,1907.491,588,223,377
20.312195,295,2044,-52,130,224,-85,-10145.965,3072.445,12347.852,1893.529
20.332214,240,2133,35,145,234,-139,-10167.849,3020.309,12343.982,1885.234
20.352142,153,2184,152,83,244,-214,-10177.878,2956.184,12351.707,1882.162
20.372131,139,2216,163,-4,265,-306,-10172.202,2878.173,12374.888,1881.486
20.392120,181,2221,119,-94,295,-394,-10161.162,2789.423,12404.080,1882.586,599,217,382
20.412109,172,2206,134,-109,333,-444,-10149.367,2693.165,12434.985,1882.496
20.432098,181,2154,128,-116,351,-466,-10134.027,2595.721,12468.217,1882.214
20.452087,135,2163,59,-146,351,-470,-10115.304,2499.911,12503.112,1881.142
20.472076,125,2118,64,-156,346,-459,-10097.829,2406.972,12535.590,1880.097
20.492065,89,2084,55,-137,332,-440,-10085.279,2316.202,12562.614,1881.094,605,231,377
20.512054,117,2087,90,-86,310,-438,-10077.762,2226.033,12584.480,1884.086
20.532043,110,2108,31,-43,299,-434,-10077.420,2138.022,12599.832,1885.239,605,231,377,31472
20.552032,212,2126,37,11,318,-393,-10085.406,2057.454,12607.381,1881.715
20.571991,239,2013,49,55,306,-325,-10100.245,1990.088,12607.815,1871.640
20.591980,238,1998,20,91,282,-222,-10119.263,1940.343,12602.969,1853.695,587,249,361
20.611969,240,2050,-94,104,253,-111,-10141.697,1907.154,12594.160,1825.187
20.631958,251,2133,-104,128,253,4,-10170.115,1889.305,12579.041,1789.541
20.651947,307,2175,-71,154,209,95,-10204.180,1886.406,12557.594,1748.835
20.671966,314,2173,-88,189,187,183,-10243.293,1896.002,12530.723,1701.921
20.691925,358,2151,-113,222,170,264,-10287.169,1917.542,12497.933,1653.567
20.711914,387,2125,-137,251,121,321,-10331.969,1951.473,12461.902,1605.804,570,239,368
20.731903,380,2127,-55,251,77,369,-10373.989,1994.399,12426.251,1557.704
20.751861,373,2138,-61,214,50,404,-10408.034,2042.940,12395.728,1510.160
20.771881,399,2054,-49,161,19,403,-10437.564,2094.198,12366.746,1473.303
20.791870,421,2096,-74,153,-51,364,-10463.106,2147.615,12338.981,1447.807
20.811828,396,2035,-78,133,-97,325,-10484.719,2198.174,12313.942,1428.624,576,245,351
20.831817,305,2032,-32,118,-107,284,-10500.484,2241.736,12294.531,1412.228
20.851806,232,2075,-130,61,-78,235,-10509.493,2271.979,12283.012,1397.035
20.871856,315,2085,-103,27,-27,161,-10518.747,2286.983,12273.424,1387.138
20.891784,215,2114,-135,40,0,69,-10527.961,2285.081,12266.500,1381.606
20.911773,256,2133,-173,47,53,-22,-10538.358,2264.483,12261.466,1380.947,594,246,345
20.931762,269,2125,-193,60,115,-117,-10553.484,2229.395,12254.138,1387.561
20.951751,268,2182,-248,100,117,-192,-10571.993,2181.493,12245.867,1395.781
20.971740,293,2199,-199,124,161,-248,-10593.028,2125.962,12236.181,1406.892
20.991699,341,2292,-248,139,174,-285,-10612.027,2065.937,12228.206,1422.389
21.011719,223,2231,-196,108,161,-323,-10622.511,2003.833,12226.599,1446.595,596,237,340
21.031708,230,2190,-95,35,115,-389,-10621.649,1940.128,12233.667,1479.629,596,237,340,31482
21.051666,236,2129,-51,-30,85,-419,-10609.012,1879.237,12249.862,1514.480
21.071655,201,2047,-37,-99,66,-424,-10595.817,1823.908,12264.830,1552.871
21.091644,229,2063,-98,-61,23,-398,-10583.103,1778.296,12277.310,1593.321
21.111633,235,2142,-103,-67,-26,-355,-10572.122,1746.013,12285.928,1634.956,592,251,347
21.131622,215,2165,-95,-45,-86,-293,-10566.361,1725.553,12288.186,1676.426
21.151611,189,2257,-206,2,-123,-241,-10564.106,1711.358,12287.078,1712.910
21.171600,155,2083,-175,13,-101,-202,-10571.700,1701.872,12276.785,1748.934
21.191589,101,2072,-190,109,-114,-154,-10587.985,1694.558,12259.435,1778.969
21.211578,208,2119,-325,131,-84,-111,-10605.361,1685.116,12242.784,1798.994,581,262,353
21.231567,106,2156,-216,142,-31,-90,-10632.160,1670.094,12220.418,1806.873
21.251556,106,2207,-268,209,36,-66,-10666.609,1649.526,12193.534,1804.349
21.271515,79,2200,-300,256,119,-48,-10707.352,1621.272,12162.918,1795.253
21.291504,91,2137,-188,282,167,-53,-10748.568,1583.000,12133.747,1780.451
21.311493,72,1992,-103,268,240,-84,-10778.671,1534.929,12116.982,1754.541,566,272,349
21.331482,138,2016,82,112,342,-82,-10787.157,1481.830,12121.500,1716.420
21.351471,144,2001,84,-78,409,-81,-10766.970,1426.752,12153.026,1666.170
21.371460,227,2096,129,-297,430,-64,-10729.052,1374.889,12199.574,1613.367
21.391449,260,2114,147,-356,422,-82,-10687.071,1329.087,12248.446,1559.178
21.411438,189,2168,10,-381,395,-35,-10641.828,1293.346,12298.306,1505.272,558,271,333
21.431427,282,2182,-20,-388,349,0,-10603.140,1267.339,12339.500,1462.681
21.451385,409,2251,-76,-290,219,-13,-10577.871,1252.506,12366.265,1432.064
21.471374,467,2286,-101,-191,182,20,-10565.869,1242.150,12382.166,1391.720
21.491394,481,2277,-103,-114,221,93,-10565.310,1240.311,12388.130,1343.697
21.511352,521,2245,-51,-47,217,183,-10572.275,1249.613,12387.598,1283.862,566,269,332
21.531341,626,2114,75,6,227,282,-10587.740,1271.605,12379.589,1209.946,566,269,332,31488
21.551391,575,2048,88,50,234,393,-10604.692,1310.576,12368.996,1125.288
21.571319,610,2024,21,39,214,510,-10620.283,1365.465,12357.573,1034.851
21.591308,620,2020,-42,40,152,586,-10636.373,1433.785,12343.479,941.155
21.611297,661,2172,-143,41,139,648,-10653.424,1508.635,12326.705,846.379,561,284,346
21.631256,703,2327,-138,53,132,673,-10674.343,1583.359,12305.359,751.621
21.651245,734,2303,-64,95,124,665,-10701.267,1656.384,12277.560,660.473
21.671234,714,2199,83,141,119,645,-10725.655,1724.863,12251.384,569.394
21.691253,665,2055,211,100,156,622,-10741.293,1784.532,12233.076,476.803
21.711242,557,1869,239,39,181,576,-10744.863,1834.160,12225.761,387.286,583,279,332
21.731201,507,1709,254,-64,202,516,-10738.117,1871.132,12228.551,299.450
21.751190,410,1617,254,-113,256,427,-10726.698,1887.381,12237.868,213.894
21.771179,323,1674,124,-168,323,325,-10707.512,1879.999,12256.893,137.107
21.791168,465,1867,-8,-219,343,163,-10684.741,1852.222,12281.422,87.745
21.811157,644,2107,-33,-226,292,-24,-10664.941,1807.032,12305.540,52.696,607,267,323
21.831146,815,2251,-56,-200,316,-118,-10652.103,1755.645,12324.185,17.394
21.851135,863,2448,-85,-139,332,-112,-10648.960,1710.651,12333.216,-23.152
21.871094,805,2450,-52,-68,338,-44,-10656.108,1672.852,12332.047,-70.478
21.891113,696,2391,61,28,340,11,-10673.740,1642.606,12320.528,-114.633
21.911072,630,2272,58,82,296,25,-10693.273,1610.033,12307.398,-158.446,620,257,332
21.931091,613,2083,83,112,324,4,-10716.292,1576.061,12291.237,-195.085
21.951080,650,1950,44,115,269,-25,-10732.891,1548.777,12279.807,-219.367
21.971039,655,1861,39,82,174,-40,-10743.415,1531.976,12272.448,-233.535
21.991028,626,1758,33,36,99,-27,-10747.241,1525.658,12269.744,-240.805
22.011017,542,1657,144,-6,29,-9,-10743.391,1528.146,12272.833,-239.433,641,257,330
22.031006,457,1679,154,-56,-57,-14,-10728.025,1537.218,12285.424,-224.114,641,257,330,31466
22.050995,441,1814,143,-150,-139,-54,-10698.194,1543.683,12311.077,-196.208
22.070984,504,2063,136,-243,-182,-128,-10661.396,1544.805,12343.406,-154.886
22.090973,482,2264,74,-271,-214,-195,-10625.762,1540.458,12375.111,-110.614
22.110962,465,2283,64,-246,-209,-222,-10596.444,1534.545,12401.298,-61.448,634,243,318
22.130920,463,2383,70,-185,-206,-231,-10576.025,1526.219,12419.892,-7.546
22.150940,440,2517,67,-133,-217,-253,-10559.139,1513.029,12435.791,43.042
22.170898,449,2510,227,-108,-163,-265,-10547.516,1493.963,12447.710,89.034
22.190887,490,2516,373,-85,-133,-264,-10527.910,1475.498,12466.147,128.941
22.210876,493,2426,471,-183,-105,-229,-10498.575,1462.155,12492.086,158.916,632,245,325
22.230865,484,2266,539,-210,-106,-170,-10472.081,1463.552,12513.717,189.363
22.250885,455,2007,469,-160,-187,-101,-10444.463,1483.598,12533.918,220.125
22.270843,468,1834,256,-197,-241,-20,-10410.673,1520.370,12557.033,250.403
22.290832,518,1734,271,-224,-317,47,-10379.940,1573.526,12575.207,283.679
22.310821,464,1636,186,-164,-376,112,-10356.553,1641.136,12585.152,312.808,623,251,333
22.330810,435,1580,244,-131,-394,198,-10338.896,1721.242,12588.305,338.475
22.350799,395,1583,225,-76,-426,267,-10324.074,1808.120,12587.689,360.171
22.370788,315,1625,304,-51,-414,304,-10314.774,1894.240,12582.140,377.446
22.390747,227,1682,266,-14,-386,309,-10310.197,1972.588,12573.323,394.603
22.410736,72,1721,286,19,-347,262,-10310.780,2033.625,12562.411,416.483,617,245,346
22.430725,46,1787,276,58,-303,154,-10316.222,2074.165,12550.093,451.678
22.450714,96,2007,156,90,-296,14,-10324.964,2096.234,12537.435,499.071
22.470703,181,2158,148,127,-270,-95,-10344.465,2105.368,12517.536,553.336
22.490692,224,2292,205,219,-253,-148,-10375.039,2108.694,12489.176,606.536
22.510681,213,2393,241,281,-214,-148,-10408.679,2110.031,12458.520,654.133,623,234,347
22.530670,108,2301,166,281,-186,-129,-10445.585,2112.093,12424.890,697.406,623,234,347,31484
22.550659,24,2327,38,311,-168,-105,-10484.399,2110.774,12390.067,737.345
22.570648,-1,2310,-32,312,-138,-120,-10527.024,2100.119,12353.109,779.360
22.590637,-36,2244,-78,359,-102,-172,-10577.631,2077.095,12311.021,820.723
22.610626,-98,2304,-104,402,-50,-216,-10628.934,2042.187,12269.773,862.170,630,239,359
22.630615,-146,2241,-6,382,-6,-268,-10678.188,1993.340,12231.875,905.299
22.650573,-145,2182,74,374,33,-341,-10720.386,1933.643,12200.860,953.316
22.670562,-268,2076,0,319,45,-413,-10756.740,1866.567,12175.008,1006.519
22.690552,-228,1913,58,301,40,-461,-10791.092,1797.272,12149.710,1068.710
22.710541,-302,1841,-30,282,7,-502,-10819.359,1726.640,12128.528,1137.726,620,250,356
22.730560,-266,1793,-55,248,-26,-535,-10842.105,1655.115,12110.997,1211.830
22.750519,-221,1794,-20,206,-38,-556,-10859.435,1586.345,12096.561,1290.275
22.770569,-219,1875,-126,188,-87,-561,-10873.279,1524.760,12083.077,1371.713
22.790497,-291,1896,-142,166,-126,-534,-10888.229,1472.300,12066.414,1454.604
22.810455,-224,2085,-178,189,-169,-499,-10903.638,1430.414,12047.094,1538.684,601,256,333
22.830444,-175,2187,-151,182,-207,-450,-10918.711,1398.892,12027.148,1614.927
22.850433,-153,2271,-37,173,-206,-366,-10929.015,1384.087,12010.175,1682.875
22.870422,-176,2334,-25,100,-253,-265,-10925.372,1390.795,12003.758,1745.611
22.890411,-164,2312,-49,-10,-330,-182,-10915.238,1418.425,11999.994,1811.410
22.910400,-164,2259,-62,-25,-417,-107,-10907.040,1463.151,11992.447,1874.117,584,275,322
22.930389,-135,2264,-151,-18,-449,-20,-10896.805,1520.749,11985.494,1931.406
22.950378,-66,2209,-127,-55,-484,42,-10885.811,1590.831,11977.749,1984.274
22.970367,1,2214,-94,-42,-501,117,-10879.273,1671.562,11965.721,2025.893
22.990356,12,2198,-57,-33,-485,214,-10872.265,1762.371,11954.299,2053.795
23.010345,45,2228,4,-55,-474,306,-10861.723,1866.130,11945.537,2068.841,564,272,318
23.030334,55,2233,-35,-109,-468,406,-10848.076,1976.560,11939.229,2074.296,564,272,318,31503
23.050323,35,2170,129,-147,-457,454,-10832.145,2091.237,11934.195,2074.070
23.070312,38,2161,105,-150,-444,470,-10807.945,2205.493,11936.104,2070.986
23.090271,-19,2051,131,-218,-420,465,-10782.056,2310.649,11941.040,2062.806
23.110290,-104,2006,172,-200,-355,434,-10760.018,2399.337,11945.621,2050.062,563,266,333
23.130249,-150,1938,236,-196,-254,370,-10739.208,2462.948,11954.302,2033.072
23.150238,-121,1944,211,-187,-168,267,-10717.829,2504.644,11966.981,2020.322
23.170227,-58,1847,192,-173,-72,163,-10699.189,2525.259,11981.344,2008.296
23.190216,13,1994,90,-151,-18,84,-10678.058,2534.623,11999.878,1998.278
23.210205,36,2096,85,-195,12,29,-10657.507,2536.701,12019.344,1988.338,583,264,339
23.230194,81,2201,101,-154,33,7,-10644.757,2536.358,12031.905,1981.091
23.250183,76,2321,106,-86,17,5,-10639.607,2537.984,12036.840,1976.689
23.270172,25,2252,120,-36,7,22,-10642.464,2542.027,12033.880,1974.139
23.290161,-69,2173,152,32,-16,36,-10649.920,2549.094,12025.475,1976.031
23.310150,-138,2126,167,52,-36,36,-10653.711,2552.652,12021.125,1977.473,590,257,351
23.330108,-156,2021,173,10,-5,11,-10656.297,2549.429,12019.051,1980.299
23.350128,-112,1937,133,19,3,-28,-10656.295,2540.570,12020.223,1984.583
23.370086,-36,1944,85,-9,23,-58,-10656.303,2527.329,12022.758,1986.082
23.390075,53,2020,4,-15,44,-68,-10658.134,2516.059,12023.133,1988.298
23.410064,154,2107,1,34,17,-49,-10667.001,2512.352,12015.890,1989.219,596,254,354
23.430053,199,2173,-3,66,16,25,-10682.367,2517.965,12003.279,1975.757
23.450042,198,2233,17,104,39,124,-10704.413,2531.928,11985.027,1949.212
23.470031,153,2164,68,119,81,207,-10728.796,2550.288,11965.084,1913.415
23.490021,88,2154,92,124,86,251,-10750.626,2571.811,11946.667,1876.806
23.510010,104,2109,78,92,75,251,-10767.531,2592.816,11931.871,1844.845,583,257,351
23.529968,88,2125,85,64,48,216,-10777.540,2610.972,11922.635,1820.343,583,257,351,31519
23.549988,59,2157,46,11,31,163,-10778.137,2622.476,11922.587,1800.482
23.569946,40,2240,124,-59,43,99,-10767.744,2625.319,11933.650,1785.167
23.589935,12,2246,189,-139,52,26,-10747.939,2618.500,11954.407,1775.625
23.609924,-17,2228,294,-180,66,-49,-10724.260,2601.533,11979.807,1772.551,609,249,347
23.629913,-37,2204,311,-197,69,-119,-10694.480,2577.680,12010.877,1777.056
23.649902,-58,2227,307,-241,54,-182,-10654.711,2550.337,12050.159,1789.421
23.669891,-98,2133,166,-313,32,-234,-10611.007,2520.544,12091.423,1812.819
23.689880,-138,2055,163,-271,-42,-291,-10580.311,2489.209,12119.345,1848.717
23.709869,-38,1935,233,-154,-33,-311,-10555.821,2453.820,12142.143,1886.055,617,255,349
23.729858,15,1868,185,-145,-27,-315,-10528.885,2421.301,12166.505,1921.319
23.749847,13,1823,143,-169,-42,-289,-10499.874,2394.707,12192.645,1947.525
23.769836,-18,1844,131,-184,-6,-225,-10477.673,2373.710,12213.490,1962.130
23.789825,26,1910,178,-133,15,-149,-10463.689,2358.982,12227.135,1969.522
23.809814,43,1979,109,-81,16,-89,-10457.831,2351.513,12233.189,1971.970,593,262,353
23.829773,87,2099,116,-25,13,-29,-10461.919,2351.620,12230.255,1968.355
23.849792,98,2096,141,39,15,41,-10477.061,2359.690,12217.211,1959.141
23.869751,95,2095,142,119,7,110,-10500.938,2376.384,12195.441,1946.728
23.889740,79,2104,119,166,-9,170,-10529.393,2400.386,12168.785,1930.316
23.909729,19,2181,61,189,-17,216,-10562.147,2428.250,12137.713,1912.070,592,261,357
23.929718,8,2325,36,222,-19,238,-10598.240,2453.785,12103.952,1893.681
23.949707,-74,2442,186,236,0,222,-10633.103,2472.831,12071.922,1877.858
23.969696,-34,2448,218,214,2,170,-10656.546,2486.004,12049.463,1871.814
23.989715,-85,2382,315,127,-33,89,-10666.330,2492.938,12039.305,1872.223
24.009674,-164,2279,290,43,-22,22,-10666.437,2489.214,12039.478,1875.460,588,257,367
24.029632,-239,2145,260,-17,19,-44,-10661.086,2470.910,12047.229,1880.304,588,257,367,31503
24.049621,-276,1979,207,-50,65,-126,-10649.398,2435.750,12063.518,1887.960
24.069610,-247,1876,115,-98,116,-224,-10632.655,2385.795,12086.020,1902.149
24.089599,-250,1814,107,-123,147,-312,-10615.889,2322.467,12110.201,1920.288
24.109588,-218,1860,51,-93,162,-381,-10599.154,2252.174,12134.029,1945.874,595,264,349
24.129577,-149,1942,56,-113,162,-428,-10584.159,2175.530,12157.640,1967.193
24.149566,-71,1969,105,-72,224,-415,-10579.649,2096.195,12173.877,1977.153
24.169555,21,2057,105,7,265,-363,-10582.823,2024.119,12183.704,1974.737
24.189544,3,2130,237,17,309,-263,-10589.963,1960.955,12191.498,1951.959
24.209533,-3,2143,239,26,357,-146,-10597.009,1909.045,12199.379,1915.603,598,257,363
24.229522,6,2135,234,5,358,-54,-10601.733,1868.557,12208.745,1869.151
24.249511,63,2109,248,-41,364,22,-10601.843,1836.424,12221.628,1815.412
24.269470,22,2144,295,-73,337,70,-10599.637,1810.608,12236.020,1756.315
24.289459,-3,2156,203,-94,346,100,-10597.998,1789.574,12249.033,1696.018
24.309448,188,2191,199,-75,323,130,-10598.855,1772.149,12259.904,1629.093,578,252,358
24.329437,237,2223,142,-68,372,174,-10602.701,1762.786,12267.141,1558.203
24.349426,240,2184,155,-45,357,243,-10611.660,1758.746,12270.201,1475.494
24.369415,272,2163,152,-17,359,301,-10623.620,1765.144,12268.668,1392.185
24.389404,285,2030,235,-8,326,349,-10636.254,1780.524,12264.557,1309.924
24.409393,264,1947,289,14,267,381,-10646.853,1808.354,12259.018,1235.426,575,258,350
24.429382,212,1945,277,-4,182,399,-10649.755,1846.838,12256.869,1173.240
24.449341,153,1972,318,-51,85,383,-10645.010,1888.764,12259.112,1125.137
24.469360,112,1996,316,-97,24,329,-10632.749,1926.805,12266.948,1090.634
24.489349,85,2014,335,-124,-12,249,-10619.088,1956.284,12276.003,1069.163
24.509338,129,2041,268,-120,-33,157,-10603.393,1976.952,12286.876,1061.992,590,262,344
24.529327,154,2065,254,-120,-67,71,-10588.593,1991.031,12296.691,1069.719,590,262,344,31478
24.549286,197,2041,218,-100,-113,-10,-10576.787,2002.566,12303.065,1091.481
24.569275,239,2047,172,-38,-170,-58,-10569.838,2017.324,12303.595,1125.122
24.589264,140,2065,187,-15,-223,-71,-10569.061,2035.553,12297.589,1164.561
24.609253,34,2022,261,57,-256,-67,-10575.080,2055.186,12284.615,1211.424,601,241,340
24.629242,-19,2002,271,107,-282,-88,-10582.372,2070.959,12270.046,1267.254
24.649231,-43,1923,244,116,-308,-146,-10590.899,2079.490,12254.431,1331.518
24.669220,-32,1843,138,142,-309,-201,-10602.904,2080.762,12236.052,1401.187
24.689209,-8,1822,29,180,-305,-242,-10620.866,2078.749,12212.334,1473.207
24.709198,10,1875,-33,221,-293,-247,-10645.861,2075.024,12182.672,1542.026,601,244,347
24.729156,59,1903,16,284,-271,-225,-10678.819,2074.522,12145.621,1605.773
24.749145,43,2051,108,316,-261,-176,-10711.123,2080.243,12108.697,1661.119
24.769134,94,2212,138,285,-252,-115,-10736.267,2094.410,12077.520,1707.322
24.789123,138,2341,231,215,-249,-54,-10749.866,2121.006,12055.359,1745.128
24.809112,136,2471,231,105,-270,20,-10749.544,2162.940,12044.013,1773.746,595,262,344
24.829101,139,2412,185,-11,-302,99,-10741.086,2219.860,12037.476,1798.862
24.849090,126,2267,171,-23,-351,167,-10739.607,2289.864,12022.128,1822.423
24.869079,129,2085,73,37,-382,238,-10740.892,2367.524,12002.738,1843.307
24.889068,177,2054,-19,36,-397,271,-10740.733,2449.516,11983.413,1862.730
24.909057,212,1932,30,27,-400,290,-10746.382,2531.811,11958.604,1879.474,590,257,346
24.929046,285,1913,47,85,-389,309,-10755.662,2617.879,11928.976,1896.685
24.949035,289,1955,61,101,-421,331,-10763.932,2711.801,11897.679,1914.305
24.969024,219,1901,112,105,-449,363,-10776.409,2808.471,11861.146,1931.355
24.989013,203,1827,84,145,-448,375,-10787.033,2901.310,11826.258,1948.681
25.008972,160,1719,195,90,-410,348,-10786.625,2980.388,11804.764,1961.884,594,261,354
25.028961,-71,1727,280,3,-366,271,-10772.796,3047.107,11798.477,1973.163,594,261,354,31525
25.048950,9,1725,249,-93,-304,190,-10747.480,3096.639,11806.385,1986.760
25.068939,57,1813,322,-194,-196,108,-10716.101,3122.853,11825.880,1999.243
25.088928,110,1982,285,-212,-157,-28,-10683.204,3127.288,11851.512,2016.508
25.108917,149,2170,257,-211,-82,-137,-10652.741,3112.701,11879.679,2034.414,609,241,345
25.128906,236,2381,215,-199,-1,-204,-10623.623,3081.863,11911.500,2047.520
25.148895,297,2481,111,-200,76,-248,-10602.011,3044.288,11937.959,2061.610
25.168854,448,2457,116,-115,52,-261,-10590.747,3013.691,11950.242,2093.054
25.188873,442,2409,167,-17,-75,-280,-10587.509,2995.988,11950.972,2130.353
25.208893,427,2224,233,54,-98,-187,-10596.217,2993.578,11938.161,2162.038,603,233,356
25.228821,324,2035,248,149,-158,-79,-10610.768,3010.255,11915.704,2191.210
25.248810,268,1922,212,158,-201,16,-10624.204,3040.801,11890.971,2218.119
25.268799,251,1867,206,147,-247,75,-10636.359,3079.910,11865.431,2242.544
25.288788,217,1831,240,134,-257,112,-10645.280,3122.187,11842.500,2262.871
25.308777,216,1825,219,89,-246,132,-10649.325,3164.231,11824.854,2277.666,600,235,358
25.328766,206,1758,206,56,-216,135,-10652.200,3203.529,11809.208,2290.429
25.348755,252,1826,178,47,-210,123,-10651.098,3240.229,11797.721,2303.091
25.368744,161,1949,192,1,-188,101,-10646.575,3267.584,11792.976,2309.652
25.388733,12,2120,142,-25,-115,68,-10640.167,3281.043,11794.158,2314.059
25.408722,126,2225,180,-42,-49,7,-10634.158,3277.087,11798.635,2324.439,603,245,358
25.428680,108,2272,229,-27,-17,-95,-10630.252,3254.395,11805.895,2337.290
25.448700,126,2276,223,-15,43,-193,-10622.985,3217.427,11819.238,2354.017
25.468689,167,2161,277,-40,88,-258,-10617.129,3169.173,11834.714,2368.097
25.488678,170,2144,245,-16,140,-284,-10609.286,3116.599,11853.211,2380.477
25.508636,164,2111,208,-68,158,-299,-10596.488,3062.947,11876.521,2390.915,609,241,364
25.528625,126,2116,190,-91,158,-302,-10583.447,3010.992,11899.424,2400.777,609,241,364,31525
25.548614,82,2057,166,-93,155,-290,-10570.965,2960.288,11920.940,2412.053
25.568603,82,1952,123,-74,134,-291,-10559.421,2912.885,11939.431,2428.814
25.588592,106,1833,136,-56,89,-292,-10549.205,2870.628,11954.170,2450.919
25.608581,103,1858,108,-41,48,-280,-10538.455,2835.063,11967.296,2474.399,599,239,366
25.628540,110,1987,85,-44,23,-253,-10527.921,2805.709,11978.532,2498.216
25.648529,143,2063,47,-38,-10,-226,-10519.788,2784.247,11985.227,2524.238
25.668518,111,2114,143,-16,-48,-193,-10515.016,2772.154,11986.583,2550.855
25.688507,142,2213,171,4,-83,-143,-10507.529,2769.011,11988.781,2574.676
25.708496,133,2256,235,-40,-103,-103,-10495.150,2775.833,11993.711,2594.785,586,245,358
25.728546,91,2317,244,-82,-120,-44,-10476.012,2790.380,12004.640,2605.956
25.748474,80,2298,273,-152,-100,0,-10457.109,2807.120,12015.527,2613.709
25.768463,54,2273,319,-103,-102,14,-10449.825,2823.178,12017.071,2618.445
25.788452,34,2234,246,-29,-68,46,-10448.142,2834.510,12016.591,2615.122
25.808441,36,2071,196,-17,-8,55,-10450.082,2838.623,12016.182,2604.767,566,262,365
25.828430,62,2031,197,0,51,53,-10453.550,2835.776,12017.401,2588.271
25.848419,120,1968,175,-19,105,42,-10455.870,2827.362,12021.732,2567.917
25.868377,182,1942,175,-19,124,28,-10459.450,2818.692,12025.630,2544.511
25.888397,143,1927,270,-19,144,53,-10462.959,2812.735,12030.653,2512.732
25.908386,130,1893,367,-41,177,97,-10464.802,2810.607,12037.307,2475.291,576,248,374
25.928375,141,1919,357,-61,162,124,-10461.841,2815.505,12045.773,2440.822
25.948364,131,1979,306,-91,111,130,-10453.883,2825.929,12056.047,2411.971
25.968353,116,2018,234,-109,68,121,-10444.662,2838.161,12065.864,2388.352
25.988312,97,2013,161,-106,43,110,-10437.862,2847.742,12072.631,2372.427
26.008301,68,2000,144,-56,16,62,-10436.618,2852.636,12074.394,2363.033,578,252,365
26.028290,32,2053,168,-28,21,37,-10435.687,2851.212,12076.591,2357.630,578,252,365,31529
26.048279,30,2138,218,-20,37,-10,-10437.150,2840.417,12078.159,2356.149
26.068237,19,2238,260,11,55,-61,-10438.729,2819.455,12081.495,2357.225
26.088257,18,2284,293,4,90,-116,-10438.814,2788.079,12088.527,2358.120
26.108246,121,2292,327,-5,135,-159,-10436.655,2748.757,12099.862,2355.703,594,251,366
26.128204,59,2202,308,-40,171,-182,-10428.378,2707.159,12116.766,2353.643
26.148193,100,2118,379,-68,147,-206,-10417.939,2669.537,12134.669,2350.606
26.168213,192,2029,304,-102,184,-157,-10404.045,2638.794,12154.675,2343.487
26.188171,331,1979,329,-121,109,-118,-10387.566,2623.513,12174.588,2330.344
26.208160,313,1898,354,-158,116,-18,-10375.330,2621.844,12189.738,2307.417,586,245,372
26.228149,334,1948,236,-117,82,83,-10367.019,2632.423,12202.099,2267.044
26.248138,326,1945,214,-113,151,194,-10361.994,2651.707,12212.309,2211.892
26.268127,368,1826,99,-145,162,284,-10356.949,2680.505,12221.850,2147.167
26.288116,348,1874,-44,-130,175,356,-10362.414,2715.674,12221.445,2077.788
26.308105,290,2007,158,-44,182,413,-10390.406,2747.743,12202.676,2004.874,580,246,364
26.328094,308,2068,257,146,194,425,-10430.710,2777.188,12171.975,1940.608
26.348083,281,2169,264,205,187,394,-10468.006,2799.412,12144.594,1878.407
26.368042,350,2178,199,152,205,344,-10499.983,2814.186,12122.324,1820.828
26.388061,403,2191,396,137,209,287,-10524.949,2820.237,12107.645,1764.107
26.408020,396,2281,403,55,229,235,-10530.884,2823.621,12109.939,1706.591,588,240,372
26.428100,407,2250,317,-80,235,205,-10528.808,2827.388,12117.900,1655.902
26.447998,379,2178,407,-81,175,172,-10532.383,2832.247,12119.065,1615.852
26.467987,388,2067,315,-13,142,148,-10534.832,2835.813,12120.238,1584.531
26.487976,371,2055,296,-41,107,106,-10533.710,2836.936,12124.138,1559.955
26.507965,388,1933,293,-39,88,66,-10531.418,2836.886,12127.819,1546.852,596,234,364
26.527954,393,1953,282,-45,28,18,-10523.635,2837.942,12134.845,1542.782,596,234,364,31550
26.547943,353,1888,242,-67,8,-11,-10514.018,2837.084,12143.304,1543.359
26.567932,298,1850,286,-81,-17,-40,-10504.063,2833.220,12152.129,1548.779
26.587921,217,1833,280,-57,-5,-72,-10496.004,2818.628,12161.529,1556.235
26.607910,188,1849,265,-60,29,-136,-10486.122,2791.465,12174.884,1567.352,613,237,364
26.627899,193,1843,217,-56,71,-206,-10479.229,2748.782,12188.622,1582.043
26.647857,250,1957,284,-47,111,-286,-10472.179,2692.141,12205.276,1597.656
26.667846,208,2037,241,-46,158,-341,-10467.468,2624.393,12222.145,1612.221
26.687835,217,2036,242,-24,211,-380,-10466.773,2546.868,12237.234,1626.547
26.707824,218,2168,406,0,236,-414,-10465.744,2464.739,12253.076,1640.369,607,228,365
26.727813,247,2240,331,-9,259,-426,-10461.803,2383.552,12270.950,1651.839
26.747802,223,2239,377,-33,250,-404,-10459.355,2306.697,12286.610,1660.022
26.767792,208,2206,382,-18,259,-370,-10455.629,2234.345,12302.244,1666.654
26.787781,222,2101,232,-32,226,-349,-10451.483,2172.509,12315.158,1678.998
26.807770,218,1927,230,-11,155,-316,-10453.825,2120.507,12320.541,1691.357,593,233,370
26.827759,263,1924,194,47,134,-261,-10460.171,2079.132,12320.763,1701.838
26.847748,276,1884,215,62,95,-196,-10471.719,2049.565,12315.247,1706.603
26.867737,247,1914,247,95,86,-118,-10488.027,2032.024,12304.358,1705.982
26.887695,214,1974,232,123,59,-40,-10505.375,2026.703,12290.748,1703.681
26.907684,163,2018,331,121,15,11,-10520.319,2031.059,12277.357,1702.830,599,244,357
26.927673,167,2021,286,96,-26,44,-10530.927,2043.137,12266.121,1703.781
26.947662,117,2091,219,69,-54,64,-10538.643,2057.640,12257.292,1702.156
26.967651,99,2176,228,40,-37,73,-10544.524,2070.640,12250.191,1701.096
26.987640,64,2250,252,33,-48,56,-10548.564,2077.266,12245.916,1698.750
27.007629,74,2223,258,20,2,27,-10553.000,2075.366,12242.929,1695.039,583,257,367
27.027618,48,2194,220,26,36,-4,-10557.647,2065.313,12241.383,1689.539,583,257,367,31525
27.047607,39,2194,276,20,81,-31,-10561.899,2044.876,12242.513,1679.609
27.067596,48,2143,333,7,139,-66,-10561.359,2016.871,12248.684,1671.856
27.087585,59,2082,313,-31,135,-114,-10555.019,1984.911,12260.017,1667.070
27.107544,36,1992,291,-73,142,-143,-10542.107,1951.424,12276.567,1666.513,584,258,347
27.127533,72,1885,254,-115,111,-173,-10522.459,1919.141,12297.712,1672.265
27.147522,46,1874,319,-158,83,-193,-10499.779,1887.171,12321.037,1679.495
27.167541,-56,1904,270,-158,81,-198,-10480.246,1853.749,12341.645,1687.389
27.187500,-47,1977,321,-110,89,-206,-10464.864,1815.350,12358.831,1698.783
27.207489,21,2043,316,-107,85,-244,-10445.933,1773.592,12378.732,1714.427,588,248,353
27.227478,111,2029,246,-120,80,-270,-10426.447,1734.033,12398.508,1730.540
27.247467,119,2066,270,-126,54,-249,-10411.007,1703.052,12414.161,1742.005
27.267425,138,2106,292,-92,72,-173,-10401.836,1680.203,12424.974,1741.890
27.287445,120,2107,321,-57,80,-88,-10400.177,1667.974,12429.383,1732.065
27.307403,91,2144,292,-11,87,2,-10404.350,1666.069,12428.550,1714.724,586,255,353
27.327423,84,2175,278,17,77,73,-10413.342,1672.303,12422.852,1695.254
27.347381,174,2152,345,61,51,115,-10428.450,1686.462,12411.099,1674.320
27.367370,230,2097,347,95,34,167,-10443.649,1710.236,12398.619,1647.717
27.387359,182,2058,342,69,16,229,-10459.104,1744.395,12385.335,1613.419
27.407348,108,2017,308,91,33,304,-10480.015,1780.633,12368.115,1569.651,572,246,366
27.427337,97,1978,406,108,75,342,-10499.163,1814.681,12352.969,1521.212
27.447326,170,1993,347,77,95,336,-10512.401,1843.347,12343.962,1467.490
27.467315,137,2012,323,27,163,328,-10524.010,1860.276,12339.086,1402.488
27.487304,152,1995,313,12,256,306,-10534.653,1865.411,12336.787,1334.331
27.507293,166,1987,310,1,288,255,-10544.650,1862.092,12335.363,1271.698,592,258,352
27.527282,186,1991,278,9,285,194,-10553.932,1852.708,12334.185,1218.736,592,258,352,31540
27.547271,198,2027,199,17,253,132,-10565.093,1838.727,12330.638,1178.428
27.567230,202,2062,195,53,212,66,-10579.562,1819.931,12323.611,1150.984
27.587250,234,2085,94,95,189,5,-10596.382,1799.680,12313.382,1137.492
27.607208,222,2128,215,99,113,-51,-10616.238,1777.836,12299.729,1134.404,593,248,356
27.627197,213,2171,174,141,83,-86,-10634.873,1757.023,12286.061,1140.382
27.647247,215,2290,231,139,47,-109,-10650.973,1737.516,12273.978,1150.091
27.667175,266,2321,243,108,27,-117,-10660.754,1721.314,12266.643,1162.021
27.687164,202,2277,265,55,1,-111,-10664.036,1711.051,12264.043,1174.446
27.707153,210,2202,240,17,-28,-89,-10662.917,1706.909,12264.131,1189.616,604,251,343
27.727203,163,2077,239,1,-52,-78,-10664.133,1703.919,12262.088,1203.978
27.747131,181,1987,203,22,-53,-67,-10664.028,1703.562,12260.642,1220.032
27.767120,216,1964,249,-5,-73,-68,-10663.013,1703.040,12260.027,1235.707
27.787079,250,1950,333,12,-64,-65,-10661.374,1705.214,12259.645,1250.554
27.807068,250,1984,323,-12,-87,-46,-10652.364,1714.317,12264.930,1263.005,598,255,344
27.827057,256,2023,356,-77,-96,-12,-10637.333,1729.253,12274.832,1273.085
27.847046,221,2041,354,-114,-118,14,-10617.799,1748.672,12288.420,1278.539
27.867035,169,1969,396,-155,-78,49,-10596.327,1766.028,12304.534,1277.838
27.887024,119,1917,348,-165,-73,46,-10568.120,1781.581,12326.349,1279.594
27.907013,113,1879,356,-229,-77,14,-10535.592,1791.796,12352.193,1284.337,604,258,338
27.927002,125,1862,233,-240,-58,-24,-10505.123,1793.142,12377.332,1290.003
27.946991,86,1935,237,-210,-21,-66,-10484.369,1784.808,12395.296,1297.896
27.966980,111,1986,261,-129,8,-105,-10472.745,1765.715,12407.017,1305.841
27.986969,71,2105,262,-64,43,-143,-10470.479,1737.104,12412.013,1314.878
28.006927,84,2223,254,18,75,-179,-10477.568,1700.980,12409.739,1327.041,593,252,344
28.026947,127,2255,257,88,82,-210,-10494.938,1660.475,12398.903,1342.286,593,252,344,31544
28.046936,144,2214,249,161,82,-225,-10520.095,1619.562,12381.060,1359.928
28.066925,128,2146,315,227,78,-221,-10553.321,1582.329,12355.698,1376.890
28.086883,141,2058,364,278,53,-187,-10585.707,1555.283,12329.308,1395.529
28.106872,147,2038,375,245,9,-147,-10609.789,1539.267,12308.525,1413.744,600,262,356
28.126861,169,2052,308,166,-38,-104,-10622.374,1538.455,12295.516,1433.187
28.146850,187,2102,314,90,-104,-48,-10627.693,1554.370,12286.601,1452.907
28.166839,188,2181,264,37,-172,22,-10626.015,1587.675,12281.585,1471.456
28.186828,215,2141,306,-18,-228,93,-10620.066,1636.193,12278.296,1488.600
28.206817,193,2105,289,-46,-278,156,-10609.805,1698.002,12277.081,1502.510,581,272,339
28.226806,214,2032,147,-74,-302,223,-10596.634,1768.746,12277.266,1512.302
28.246765,154,1937,159,-89,-317,268,-10589.343,1842.148,12271.834,1519.810
28.266784,156,1951,128,-34,-309,282,-10590.680,1911.589,12259.427,1524.866
28.286743,218,1970,243,36,-271,278,-10599.879,1973.366,12241.455,1526.635
28.306762,183,1968,224,80,-223,264,-10611.895,2028.839,12222.291,1523.986,578,264,344
28.326721,178,1985,211,88,-179,255,-10624.080,2076.971,12204.444,1517.267
28.346710,142,2013,181,85,-134,229,-10638.400,2113.970,12186.515,1509.921
28.366699,119,2057,209,103,-90,178,-10654.795,2136.792,12168.743,1505.520
28.386688,114,2074,252,116,-47,101,-10670.337,2144.385,12153.650,1506.566
28.406677,195,2089,377,111,-17,11,-10679.893,2139.852,12145.214,1513.310,593,260,346
28.426666,241,2130,460,60,-2,-63,-10678.891,2128.744,12146.863,1522.787
28.446655,208,2127,412,-28,1,-107,-10665.409,2115.650,12159.715,1532.919
28.466644,175,2160,428,-121,1,-125,-10640.475,2101.560,12182.782,1542.393
28.486633,135,2166,344,-197,7,-139,-10606.582,2085.568,12213.619,1553.632
28.506592,79,2142,204,-257,0,-170,-10569.351,2066.411,12246.674,1572.633,599,256,343
28.526581,72,2093,208,-239,-34,-220,-10543.364,2040.899,12269.406,1602.907,599,256,343,31556
28.546570,76,2025,292,-122,-56,-276,-10528.904,2010.645,12281.369,1644.044
28.566589,128,1934,346,-35,-85,-314,-10521.836,1979.926,12286.098,1690.589
28.586548,217,1886,376,18,-97,-310,-10516.037,1955.999,12288.529,1736.232
28.606537,228,1943,338,2,-121,-261,-10508.071,1945.618,12291.698,1773.308,598,252,337
28.626526,194,2007,264,-23,-128,-157,-10501.037,1950.535,12293.137,1799.402
28.646515,168,2029,276,-11,-138,-52,-10499.801,1967.906,12288.755,1817.540
28.666504,205,2014,243,18,-149,30,-10503.254,1994.669,12279.623,1830.093
28.686493,177,1988,262,43,-163,90,-10510.833,2029.177,12266.343,1837.686
28.706451,147,2024,231,66,-170,141,-10522.374,2067.071,12249.274,1843.252,588,255,346
28.726471,149,2108,155,94,-166,157,-10538.689,2102.440,12228.574,1847.482
28.746460,173,2223,184,136,-144,152,-10562.097,2131.917,12202.974,1849.290
28.766449,216,2285,191,193,-102,143,-10592.511,2155.574,12172.762,1847.022
28.786407,233,2294,348,228,-64,143,-10624.828,2176.312,12141.899,1840.220
28.806396,236,2244,355,217,-31,152,-10647.513,2195.416,12120.299,1828.773,587,249,352
28.826385,193,2129,391,122,-15,141,-10657.009,2213.616,12110.683,1815.173
28.846374,151,2053,342,5,-5,124,-10652.707,2227.667,12113.986,1801.143
28.866424,182,1946,258,-72,10,84,-10641.345,2234.680,12124.465,1789.073
28.886383,161,1860,204,-112,27,35,-10625.884,2236.429,12138.998,1780.205
28.906341,172,1861,191,-148,24,-2,-10610.530,2232.202,12154.020,1774.589,580,263,350
28.926330,184,1856,212,-106,39,-38,-10602.142,2222.691,12163.191,1773.825
28.946289,209,1901,212,-45,33,-67,-10599.283,2210.371,12167.334,1777.880
28.966278,230,2037,295,-5,23,-85,-10600.119,2197.487,12168.049,1783.968
28.986297,254,2105,267,18,18,-85,-10602.886,2187.765,12166.390,1790.778
29.006286,239,2127,208,45,2,-66,-10609.019,2181.695,12161.228,1796.909,583,257,342
29.026275,211,2134,131,52,-10,-42,-10619.658,2177.619,12151.652,1803.781,583,257,342,31556
29.046234,229,2125,69,105,-15,-38,-10639.604,2173.313,12133.509,1813.540
29.066223,241,2110,103,180,-18,-39,-10670.681,2167.494,12105.730,1823.529
29.086212,263,2135,185,265,-8,-24,-10705.832,2162.761,12074.607,1829.458
29.106201,295,2128,283,258,0,5,-10735.310,2162.546,12048.561,1828.695,593,260,351
29.126190,299,2184,323,189,11,44,-10751.659,2170.088,12033.973,1819.750
29.146179,290,2210,400,68,8,91,-10751.341,2184.717,12034.173,1802.714
29.166168,325,2149,432,-75,10,123,-10734.749,2206.351,12048.229,1781.235
29.186157,300,2127,387,-187,-1,150,-10705.670,2232.044,12073.365,1753.826
29.206115,228,2010,364,-288,18,167,-10669.881,2258.347,12104.530,1723.164,590,250,344
29.226104,136,1845,274,-310,19,163,-10627.495,2280.565,12141.547,1695.185
29.246124,88,1764,145,-367,28,110,-10579.110,2291.017,12184.285,1676.990
29.266083,70,1743,144,-391,21,0,-10541.397,2282.020,12219.234,1672.451
29.286072,88,1801,179,-236,55,-116,-10519.476,2250.578,12243.295,1677.107
29.306061,116,1893,124,-130,107,-224,-10508.595,2200.829,12260.208,1687.758,592,249,345
29.326050,143,2043,75,-49,162,-299,-10510.382,2135.713,12268.626,1699.076
29.346039,232,2136,136,56,214,-349,-10530.899,2059.577,12262.621,1709.349
29.366028,195,2091,187,203,267,-357,-10565.073,1978.163,12245.837,1714.936
29.386017,218,2121,153,275,296,-337,-10602.964,1898.701,12225.283,1717.552
29.406006,188,2138,272,288,291,-313,-10643.235,1824.539,12201.287,1719.486,609,249,364
29.425995,219,2189,324,301,264,-286,-10673.350,1759.720,12184.177,1721.700
29.445984,219,2158,336,181,216,-256,-10689.662,1707.715,12177.062,1723.201
29.465942,205,2120,268,97,167,-207,-10695.459,1672.509,12176.328,1726.946
29.485931,215,2221,219,25,89,-152,-10694.245,1651.947,12179.607,1731.122
29.505920,185,2299,261,-18,43,-98,-10691.202,1641.332,12183.094,1735.475,586,262,349
29.525909,153,2262,297,-26,0,-65,-10685.785,1638.150,12187.473,1741.092,586,262,349,31587
29.545929,119,2209,321,-48,-22,-45,-10675.055,1638.191,12196.143,1746.152
29.565887,92,2115,333,-90,-25,-37,-10660.978,1638.774,12207.882,1749.577
29.585876,95,1923,341,-110,-13,-35,-10644.270,1637.144,12222.325,1751.989
29.605865,38,1807,317,-133,-2,-48,-10624.342,1631.592,12240.082,1754.160,572,261,331
29.625854,31,1708,258,-160,11,-72,-10599.055,1620.363,12262.851,1758.511
29.645843,-7,1633,167,-176,32,-111,-10573.865,1599.491,12286.482,1764.312
29.665832,-30,1631,131,-181,66,-162,-10552.731,1566.663,12307.815,1771.598
29.685821,5,1684,106,-124,98,-217,-10539.736,1523.473,12322.814,1782.322
29.705810,42,1796,126,-64,125,-261,-10536.329,1472.165,12330.219,1794.338,582,256,347
29.725769,95,1900,101,22,143,-283,-10542.996,1419.066,12328.730,1808.131
29.745758,76,2116,80,90,132,-277,-10558.885,1367.719,12318.867,1822.151
29.765747,96,2354,135,163,125,-262,-10587.893,1319.189,12297.017,1837.132
29.785736,89,2470,145,277,104,-237,-10624.291,1276.651,12267.460,1854.576
29.805725,99,2439,207,284,66,-214,-10658.124,1245.419,12237.674,1878.325,577,258,357
29.825714,144,2396,163,265,-28,-191,-10685.723,1230.791,12210.113,1910.245
29.845703,266,2376,186,219,-133,-146,-10706.779,1238.403,12184.889,1948.113
29.865692,220,2260,223,173,-235,-69,-10723.782,1268.906,12161.135,1983.082
29.885681,221,2229,216,131,-306,44,-10732.701,1324.478,12142.197,2014.291
29.905639,198,2131,123,49,-373,156,-10735.917,1397.910,12127.395,2036.578,572,266,338
29.925628,162,2043,141,10,-375,257,-10737.555,1479.591,12114.898,2044.603
29.945617,93,1934,117,-19,-334,335,-10736.805,1561.120,12106.182,2039.534
29.965606,62,1818,113,-43,-272,363,-10735.300,1636.601,12099.329,2028.923
29.985595,73,1780,166,-54,-230,340,-10730.217,1701.284,12097.051,2016.150
30.005584,159,1777,252,-80,-169,285,-10720.998,1753.888,12099.478,2005.527,560,268,338
30.025573,97,1821,216,-105,-139,223,-10707.052,1792.893,12108.030,1993.894,560,268,338,31540
30.045562,26,1847,186,-136,-83,167,-10692.286,1816.837,12119.488,1981.808
30.065552,-22,1848,177,-133,-21,95,-10677.881,1822.640,12132.877,1972.201
30.085602,73,1929,138,-114,35,0,-10664.572,1811.101,12146.693,1969.793
30.105530,130,2061,160,-98,69,-93,-10655.162,1784.574,12158.941,1969.369,582,275,345
30.125519,154,2111,183,-54,111,-151,-10652.253,1749.095,12166.746,1968.731
30.145508,199,2212,192,-10,144,-169,-10652.364,1712.245,12172.343,1965.926
30.165497,196,2206,311,1,157,-156,-10653.503,1678.704,12177.130,1959.017
30.185486,242,2207,280,-2,149,-119,-10651.469,1654.033,12183.763,1949.803
30.205444,185,2154,352,-35,120,-72,-10646.695,1638.943,12191.914,1937.633,578,269,346
30.225464,219,2084,269,-53,92,-24,-10640.602,1634.205,12199.609,1926.639
30.245422,217,2004,227,-56,43,15,-10635.298,1638.750,12205.474,1914.877
30.265411,221,1961,113,-52,29,57,-10633.034,1649.589,12208.293,1900.118
30.285400,234,1973,48,-27,11,99,-10638.203,1664.845,12204.539,1881.909
30.305389,242,1983,110,28,31,139,-10652.840,1680.789,12193.127,1858.770,575,271,357
30.325378,299,2106,130,93,44,167,-10673.389,1698.095,12176.938,1831.081
30.345367,304,2172,215,125,61,198,-10698.840,1716.137,12157.144,1796.934
30.365356,299,2156,180,154,83,229,-10724.289,1735.530,12137.680,1757.755
30.385345,272,2081,144,139,102,247,-10749.411,1753.961,12118.790,1715.855
30.405334,295,1992,158,141,113,246,-10773.196,1768.811,12101.515,1672.819,573,277,342
30.425293,283,1980,251,113,139,227,-10790.175,1777.292,12091.472,1626.376
30.445282,310,1998,254,47,187,201,-10795.808,1778.211,12093.077,1575.245
30.465271,355,2086,297,-53,228,178,-10787.782,1775.258,12107.581,1521.222
30.485260,380,2124,311,-152,246,156,-10772.082,1769.230,12129.206,1466.247
30.505279,361,2168,345,-181,253,139,-10754.423,1765.310,12151.470,1415.366,592,263,336
30.525238,342,2138,276,-190,213,134,-10733.957,1764.490,12174.855,1370.063,592,263,336,31583
30.545227,324,2071,204,-206,177,121,-10712.758,1764.516,12197.468,1334.349
30.565216,298,1972,138,-192,125,78,-10695.123,1764.156,12215.226,1313.689
30.585205,267,1857,112,-142,59,23,-10684.212,1760.790,12225.927,1307.427
30.605163,234,1830,123,-68,17,-36,-10679.233,1752.528,12231.051,1311.284,582,275,331
30.625152,246,1843,141,-26,14,-83,-10679.757,1737.472,12231.511,1322.701
30.645141,143,1849,222,25,0,-137,-10683.358,1717.098,12228.987,1343.407
30.665130,122,1990,241,44,-19,-191,-10685.314,1689.113,12228.072,1371.371
30.685211,118,2119,307,36,-12,-252,-10684.801,1652.535,12229.560,1406.219
30.705108,48,2181,316,24,-8,-318,-10682.737,1605.960,12232.890,1446.326,599,263,340
30.725097,49,2139,301,29,3,-383,-10679.067,1550.289,12237.794,1491.966
30.745086,14,2110,240,15,16,-440,-10672.127,1486.036,12245.641,1541.781
30.765075,-27,2121,246,-3,27,-492,-10663.941,1414.053,12254.480,1594.988
30.785064,-59,2123,237,0,39,-538,-10654.563,1337.497,12263.278,1654.940
30.805053,-107,2185,146,2,33,-577,-10646.267,1255.777,12270.013,1721.112
30.825042,-149,2204,145,16,14,-624,-10641.311,1168.761,12272.540,1793.508,595,262,342
30.845031,-162,2218,165,62,15,-662,-10641.053,1077.099,12269.828,1869.390
30.865021,-113,2185,197,103,9,-684,-10642.809,986.149,12263.569,1948.958
30.884979,-8,2159,227,120,-22,-685,-10643.693,903.794,12256.044,2029.720
30.904968,63,2049,328,100,-48,-631,-10642.976,835.831,12249.641,2100.043
30.924957,62,2059,289,74,-59,-515,-10634.806,790.592,12250.094,2155.572,575,278,329
30.944946,34,1956,383,-18,-88,-366,-10619.758,772.501,12256.578,2199.025
30.964935,-8,1901,335,-84,-138,-213,-10600.466,777.777,12267.048,2231.625
30.984924,-89,1900,317,-135,-163,-81,-10578.837,799.182,12280.694,2251.554
31.004913,-104,1882,267,-180,-151,16,-10547.878,828.507,12303.327,2262.616
31.024902,-111,1898,160,-267,-143,62,-10512.637,861.001,12330.231,2268.035,547,277,332,31591
31.044891,-142,2002,171,-266,-125,86,-10484.587,891.576,12351.814,2268.621
31.064880,-187,1997,239,-204,-94,97,-10468.175,916.336,12364.344,2266.285
31.084839,-188,2107,205,-110,-65,88,-10460.000,933.903,12370.282,2264.464
31.104828,-187,2181,256,-66,-45,55,-10457.531,943.655,12371.692,2264.115
31.124847,-197,2207,248,-9,-27,24,-10460.669,945.497,12368.839,2264.442,540,281,337
31.144836,-194,2133,229,32,-1,-7,-10468.298,941.649,12362.523,2265.280
31.164825,-155,2000,174,66,13,-23,-10479.193,934.432,12353.698,2266.038
31.184814,-118,1894,14,91,20,-30,-10495.950,926.500,12340.088,2265.897
31.204773,-82,1803,-105,152,26,-16,-10527.326,918.879,12314.524,2262.520
31.224762,-48,1931,-190,268,33,23,-10578.114,913.117,12273.398,2251.413,552,284,339
31.244751,-58,2053,-123,413,64,88,-10649.990,910.538,12215.146,2230.307
31.264770,-25,2199,42,543,88,159,-10733.721,912.313,12147.049,2199.898
31.284729,11,2326,158,605,100,220,-10807.427,921.503,12087.744,2161.533
31.304779,54,2398,224,427,106,262,-10855.464,943.078,12050.630,2118.313
31.324707,30,2403,264,235,66,304,-10877.056,981.051,12035.464,2076.112,536,280,350
31.344696,11,2347,233,37,3,339,-10877.881,1032.404,12036.528,2040.412
31.364654,4,2203,180,-95,-74,340,-10868.846,1092.107,12044.325,2011.257
31.384643,71,2041,148,-135,-119,345,-10856.778,1153.312,12053.863,1984.960
31.404632,-38,1944,57,-151,-121,328,-10842.487,1210.248,12065.029,1961.193
