;Title, http://www.gcdataconcepts.com, HAM-IMU, MPU-9250
;Version, 1191, Build date, Nov 15 2016,  SN:CCDC30163044EA8
;Start_time, 2007-01-06, 22:20:21.546
;Temperature, -999.00, deg C,  Vbat, 4118, mv
;MPU SR, 200,Hz,  Accel sens, 2048,counts/g, Gyro sens, 16,counts/dps,  Mag SR, 10,Hz,  Mag sens, 1666,counts/mT
;Deadband, 0, counts
;DeadbandTimeout, 5,sec
;Time, Ax, Ay, Az, Gx, Gy, Gz, Qw, Qx, Qy, Qz, Mx, My, Mz, T
0.005401,-202,2045,464,147,-289,262,7825.276,-6498.385,-10404.323,-7531.371
0.005737,-175,2046,438,103,-361,345,7836.867,-6565.245,-10342.192,-7546.890
0.018524,-162,2023,462,65,-389,375,7844.208,-6639.675,-10278.859,-7560.661,214,-81,215
0.018859,-140,2024,459,30,-415,392,7846.990,-6717.848,-10215.468,-7574.622
0.019226,-96,2004,462,11,-437,382,7844.915,-6795.343,-10153.051,-7591.549
0.038513,-89,2012,461,2,-455,346,7835.920,-6870.622,-10092.244,-7614.128
0.058532,-111,2007,491,-6,-484,297,7818.672,-6942.696,-10033.810,-7643.653
0.078521,-144,2011,507,-18,-511,231,7791.985,-7008.845,-9980.164,-7680.679
0.098510,-171,1994,497,-27,-528,152,7757.746,-7066.213,-9932.525,-7724.401,216,-81,206
0.118530,-203,1976,494,-30,-522,67,7717.441,-7114.059,-9892.074,-7772.617
0.138519,-263,1952,435,-32,-500,-6,7674.409,-7151.741,-9858.217,-7823.491
0.158508,-332,1978,416,-22,-464,-69,7632.532,-7176.279,-9831.944,-7874.882
0.178497,-399,2012,442,5,-390,-126,7594.839,-7185.353,-9815.726,-7923.135
0.198516,-403,2002,438,23,-290,-184,7561.248,-7178.883,-9811.965,-7965.673,217,-71,207
0.218505,-427,1970,420,29,-186,-237,7531.723,-7158.540,-9819.777,-8002.240
0.238525,-418,1946,396,38,-91,-286,7506.723,-7126.898,-9836.187,-8033.760
0.258514,-412,1947,382,52,-17,-308,7487.802,-7089.321,-9855.226,-8061.284,217,-71,207,33875
0.278534,-404,1932,358,73,18,-298,7474.282,-7050.424,-9873.154,-8085.969
0.298523,-438,1947,350,90,37,-272,7464.801,-7012.694,-9889.256,-8107.829,213,-87,205
0.318512,-467,1993,350,92,47,-241,7458.360,-6977.895,-9904.085,-8125.662
0.338501,-446,2042,345,81,60,-206,7453.753,-6948.452,-9918.845,-8137.108
0.358520,-460,2096,391,51,71,-164,7449.713,-6926.211,-9934.680,-8140.451
0.378509,-469,2088,352,4,83,-122,7444.927,-6910.527,-9952.685,-8136.163
0.398498,-447,2091,414,-40,100,-91,7439.330,-6899.467,-9973.483,-8125.195,208,-78,205
0.418487,-438,2080,438,-76,116,-70,7432.499,-6892.558,-9996.978,-8108.419
0.438507,-434,2074,466,-111,125,-53,7423.509,-6889.106,-10022.912,-8087.545
0.458557,-460,2029,497,-142,133,-48,7411.309,-6887.179,-10052.171,-8064.028
0.478485,-431,1992,519,-170,140,-60,7396.136,-6885.252,-10084.898,-8038.702
0.498504,-434,1908,536,-188,149,-68,7380.795,-6883.479,-10117.895,-8012.816,196,-83,193
0.518493,-468,1842,546,-182,147,-61,7367.939,-6879.834,-10150.422,-7986.596
0.538513,-479,1821,478,-162,166,-58,7361.239,-6870.638,-10183.111,-7959.031
0.558502,-453,1798,448,-123,213,-62,7363.892,-6852.036,-10217.207,-7928.859
0.578491,-405,1801,450,-66,278,-65,7377.819,-6822.605,-10251.635,-7896.787
0.598510,-381,1843,456,0,337,-68,7401.913,-6783.732,-10285.096,-7864.153,194,-78,193
0.618499,-351,1883,421,56,383,-75,7433.669,-6734.977,-10318.899,-7831.756
0.638488,-279,1952,388,108,423,-98,7471.324,-6677.684,-10352.567,-7800.490
0.658508,-246,2059,365,150,446,-112,7512.077,-6617.426,-10383.013,-7772.183
0.678497,-266,2121,409,178,426,-115,7551.105,-6557.848,-10409.835,-7748.948
0.698486,-289,2117,361,183,386,-130,7585.489,-6498.473,-10435.037,-7731.471,192,-103,204
0.718505,-311,2150,312,181,353,-155,7616.030,-6440.212,-10458.098,-7719.026
0.738494,-326,2136,321,185,318,-157,7646.330,-6385.611,-10477.118,-7708.634
0.758483,-347,2115,291,183,291,-132,7676.574,-6335.660,-10493.744,-7697.167,192,-103,204,33853
0.778472,-349,2091,247,172,286,-106,7709.022,-6289.098,-10509.196,-7681.827
0.798492,-366,2064,284,165,300,-71,7744.983,-6244.766,-10524.923,-7660.259,191,-85,205
0.818481,-356,2043,222,156,332,-38,7785.159,-6201.165,-10542.722,-7630.418
0.838470,-315,1961,199,148,383,-7,7831.149,-6157.000,-10562.187,-7592.107
0.858490,-289,1951,184,150,433,25,7882.220,-6110.212,-10584.371,-7546.019
0.878479,-251,1921,196,154,486,35,7937.571,-6059.978,-10608.850,-7493.954
0.898468,-180,1886,167,159,528,44,7995.728,-6007.146,-10634.931,-7437.487,202,-98,213
0.918487,-139,1885,160,163,557,49,8056.230,-5953.025,-10660.797,-7378.447
0.938476,-104,1902,168,170,567,58,8118.422,-5898.857,-10684.413,-7319.390
0.958465,-78,1934,149,185,559,62,8181.169,-5846.237,-10704.404,-7262.310
0.978485,-65,2023,130,194,531,73,8243.003,-5796.829,-10720.191,-7208.509
0.998474,-43,2090,111,200,493,78,8302.098,-5750.246,-10732.815,-7159.046,204,-98,206
1.018493,-24,2172,117,194,456,66,8355.155,-5705.013,-10744.491,-7115.867
1.038482,-18,2194,139,183,410,29,8399.511,-5661.677,-10755.615,-7081.371
1.058563,-7,2168,136,159,347,-9,8434.454,-5623.199,-10765.315,-7055.709
1.078460,-26,2135,146,134,273,-30,8461.462,-5591.748,-10771.723,-7038.567
1.098480,-26,2137,109,119,196,-34,8482.312,-5567.448,-10774.057,-7029.155,216,-93,201
1.118469,-43,2169,126,101,125,-39,8496.329,-5551.353,-10773.535,-7025.755
1.138458,-21,2166,180,70,61,-32,8502.158,-5544.570,-10772.152,-7026.181
1.158477,-36,2085,224,22,3,-27,8499.555,-5547.279,-10770.638,-7029.513
1.178466,-63,2061,238,-21,-55,-23,8491.182,-5558.729,-10766.531,-7036.874
1.198455,-123,2038,268,-36,-110,-2,8482.051,-5575.224,-10759.155,-7046.113,231,-80,198
1.218475,-164,2044,246,-33,-120,18,8475.538,-5589.523,-10753.313,-7051.536
1.238464,-175,2013,293,-32,-72,19,8471.981,-5597.628,-10753.163,-7049.611
1.258483,-153,2021,293,-39,-1,13,8469.799,-5599.806,-10760.036,-7040.009,231,-80,198,33875
1.278472,-133,2007,324,-57,61,3,8467.608,-5598.231,-10773.954,-7022.590
1.298492,-115,1957,335,-91,116,-3,8463.318,-5594.583,-10795.214,-6997.976,226,-84,199
1.318481,-139,1926,361,-126,160,-11,8457.139,-5586.130,-10823.180,-6968.942
1.338470,-109,1898,361,-143,202,-42,8450.206,-5570.349,-10856.629,-6937.886
1.358459,-131,1927,359,-138,243,-73,8445.177,-5546.617,-10892.947,-6906.023
1.378448,-157,1959,369,-117,279,-103,8443.519,-5513.060,-10931.126,-6874.522
1.398468,-141,1986,369,-81,319,-141,8445.028,-5469.054,-10970.917,-6844.366,226,-86,197
1.418457,-132,2076,406,-48,351,-181,8447.762,-5416.298,-11012.446,-6816.193
1.438476,-148,2086,378,-30,370,-222,8449.578,-5358.337,-11054.959,-6790.888
1.458557,-183,2065,358,-21,369,-251,8450.505,-5295.257,-11097.167,-6770.341
1.478485,-219,2069,294,4,362,-289,8452.459,-5225.835,-11136.775,-6756.793
1.498474,-243,2116,306,51,348,-323,8458.046,-5152.026,-11171.821,-6748.624,227,-76,200
1.518463,-266,2118,297,92,336,-327,8466.015,-5079.034,-11202.941,-6742.368
1.538452,-315,2098,277,103,322,-308,8474.433,-5009.808,-11231.930,-6735.354
1.558471,-335,2077,274,91,311,-284,8483.164,-4944.719,-11259.964,-6725.646
1.578460,-349,1991,285,86,314,-253,8494.623,-4882.124,-11286.997,-6711.586
1.598449,-351,1964,234,88,331,-221,8509.880,-4820.748,-11313.343,-6692.236,227,-92,207
1.618469,-332,1899,239,95,357,-192,8530.162,-4759.386,-11338.623,-6667.506
1.638458,-351,1862,216,113,382,-159,8556.573,-4697.689,-11361.417,-6638.556
1.658447,-301,1874,198,143,403,-134,8588.980,-4635.295,-11381.093,-6606.784
1.678436,-290,1896,191,170,415,-109,8626.132,-4573.674,-11397.241,-6573.406
1.698455,-289,1893,190,192,416,-86,8666.707,-4513.664,-11410.596,-6538.254,218,-84,206
1.718444,-286,1980,188,205,418,-65,8709.984,-4453.608,-11422.183,-6501.593
1.738464,-284,1992,160,218,426,-57,8754.499,-4392.469,-11433.544,-6463.316
1.758453,-289,2047,118,220,439,-58,8799.846,-4327.614,-11445.665,-6423.912,218,-84,206,33870
1.778442,-313,2080,136,229,462,-72,8845.394,-4257.473,-11459.852,-6382.800
1.798462,-283,2090,151,229,494,-95,8889.953,-4181.455,-11477.196,-6339.839,230,-89,211
1.818451,-278,2101,129,223,522,-122,8931.291,-4099.888,-11498.158,-6296.884
1.838440,-279,2082,138,209,538,-157,8969.329,-4013.805,-11521.754,-6255.009
1.858459,-295,2097,121,201,547,-191,9004.710,-3924.499,-11547.072,-6214.021
1.878448,-286,2106,102,194,553,-209,9038.637,-3835.394,-11573.018,-6171.991
1.898437,-268,2118,138,181,552,-193,9072.843,-3752.981,-11597.293,-6126.734,230,-86,208
1.918457,-287,2096,98,172,535,-144,9108.160,-3678.485,-11619.110,-6077.984
1.938446,-278,2066,128,163,522,-96,9144.385,-3609.643,-11639.115,-6026.368
1.958435,-290,2053,125,156,516,-69,9181.095,-3542.192,-11658.583,-5972.708
1.978424,-271,2039,98,156,526,-61,9218.467,-3473.074,-11678.662,-5916.241
1.998443,-268,2043,98,157,554,-65,9256.434,-3398.385,-11700.646,-5856.597,243,-85,198
2.018432,-284,2077,137,163,589,-83,9294.185,-3316.848,-11724.299,-5795.938
2.038421,-262,2135,135,167,613,-116,9328.756,-3231.282,-11750.029,-5736.321
2.058441,-263,2120,116,152,613,-142,9359.060,-3145.832,-11777.260,-5678.318
2.078430,-286,2101,106,128,600,-150,9387.292,-3062.505,-11804.712,-5619.966
2.098449,-309,2133,42,123,599,-135,9418.146,-2980.729,-11830.241,-5558.291,245,-81,208
2.118438,-281,2134,77,139,613,-104,9454.954,-2898.734,-11852.940,-5490.395
2.138427,-314,2148,23,170,648,-69,9498.552,-2813.519,-11873.733,-5414.010
2.158447,-335,2115,25,201,707,-45,9548.092,-2720.620,-11894.517,-5328.044
2.178436,-312,2098,2,225,786,-40,9600.432,-2616.690,-11918.295,-5232.047
2.198425,-304,2023,-17,234,875,-56,9653.912,-2499.760,-11946.043,-5126.466,250,-71,193
2.218444,-271,1958,-10,236,969,-83,9706.758,-2369.879,-11978.164,-5012.140
2.238433,-265,1976,-42,233,1052,-112,9758.474,-2228.549,-12013.903,-4889.511
2.258422,-249,1983,-64,231,1128,-136,9809.093,-2076.911,-12052.332,-4758.661,250,-71,193,33849
2.278472,-244,1993,-58,225,1201,-153,9858.563,-1917.029,-12093.244,-4617.642
2.298431,-210,2085,-64,214,1277,-148,9905.906,-1752.591,-12137.259,-4463.611,252,-77,199
2.318420,-214,2109,-30,187,1351,-122,9950.338,-1586.665,-12184.565,-4294.772
2.338440,-207,2150,-43,152,1421,-79,9990.072,-1420.415,-12236.045,-4110.417
2.358429,-172,2200,-7,106,1491,-37,10022.983,-1253.012,-12292.240,-3912.293
2.378418,-146,2204,23,51,1552,-16,10045.883,-1083.893,-12353.438,-3705.861
2.398407,-106,2149,61,-14,1580,-21,10056.734,-915.601,-12418.756,-3497.668,260,-71,189
2.418426,-98,2037,75,-81,1573,-29,10057.165,-751.697,-12485.801,-3290.681
2.438415,-73,1986,80,-124,1545,-19,10052.774,-594.405,-12550.251,-3084.647
2.458496,-80,2013,112,-129,1513,6,10047.680,-442.914,-12609.431,-2878.478
2.478454,-48,2058,136,-119,1493,33,10041.048,-295.122,-12664.290,-2672.346
2.498413,-62,2097,179,-119,1473,39,10030.186,-149.792,-12716.585,-2469.176,280,-62,181
2.518432,-58,2091,217,-137,1446,28,10012.504,-5.727,-12768.248,-2270.904
2.538421,-60,2070,210,-167,1418,13,9990.026,136.278,-12818.266,-2075.641
2.558410,-43,2056,194,-176,1399,17,9967.030,274.939,-12864.014,-1880.242
2.578430,-45,2098,241,-158,1389,39,9946.215,408.075,-12903.957,-1682.142
2.598419,-27,2089,228,-130,1377,80,9926.910,534.861,-12938.824,-1480.756,306,-67,185
2.618408,0,2039,230,-110,1367,121,9908.348,657.073,-12969.060,-1277.422
2.638427,28,1987,242,-96,1356,136,9891.787,777.651,-12993.220,-1076.790
2.658416,59,1926,251,-58,1325,121,9879.407,899.174,-13009.082,-887.712
2.678405,50,1885,209,-8,1258,61,9872.098,1022.596,-13016.015,-717.465
2.698425,25,1835,210,36,1170,-21,9869.181,1150.385,-13014.913,-568.642,333,-71,189
2.718414,-26,1834,187,77,1088,-119,9870.500,1282.355,-13006.615,-438.406
2.738433,-37,1858,160,110,1019,-192,9875.883,1415.666,-12992.102,-321.766
2.758422,-50,1898,170,145,965,-234,9885.260,1547.367,-12972.142,-215.079,333,-71,189,33892
2.778411,-71,1997,149,174,911,-257,9899.486,1675.602,-12946.587,-117.751
2.798400,-82,2080,138,214,851,-274,9919.866,1799.844,-12914.769,-31.277,356,-77,183
2.818420,-88,2175,72,257,780,-302,9946.746,1918.598,-12876.912,42.387
2.838409,-122,2196,61,293,696,-319,9979.173,2028.602,-12834.540,104.405
2.858398,-145,2260,19,321,610,-315,10015.998,2127.997,-12789.148,156.658
2.878418,-161,2277,12,342,527,-301,10056.707,2215.659,-12741.609,200.825
2.898437,-188,2256,-57,354,452,-275,10097.624,2293.052,-12694.829,238.002,374,-68,170
2.918396,-246,2257,-101,339,388,-253,10136.901,2363.495,-12649.913,268.829
2.938385,-245,2206,-167,318,344,-253,10175.257,2430.796,-12605.756,292.791
2.958404,-279,2093,-239,309,309,-264,10213.296,2497.242,-12561.479,311.511
2.978393,-281,2027,-257,306,286,-276,10252.128,2562.602,-12516.231,326.085
2.998382,-254,2055,-319,309,264,-286,10290.917,2624.774,-12471.119,337.939,374,-71,157
3.018402,-243,2084,-370,302,240,-272,10328.939,2680.906,-12427.355,349.360
3.038391,-233,2042,-346,290,218,-242,10365.685,2729.332,-12385.785,362.047
3.058410,-241,2044,-386,278,198,-198,10400.647,2769.719,-12347.015,376.647
3.078399,-226,2116,-378,260,178,-155,10433.737,2802.946,-12311.035,393.025
3.098388,-186,2142,-407,245,165,-118,10464.486,2829.042,-12278.347,410.703,366,-52,138
3.118408,-154,2158,-419,224,143,-77,10492.637,2845.729,-12249.727,431.314
3.138397,-121,2187,-421,201,123,-14,10518.074,2850.437,-12225.834,457.763
3.158386,-63,2222,-417,179,108,70,10541.275,2841.633,-12206.523,492.810
3.178405,-9,2274,-420,165,99,163,10561.812,2820.790,-12191.759,536.393
3.198394,19,2249,-439,145,91,245,10578.226,2790.711,-12182.183,585.576,360,-39,128
3.218383,52,2226,-453,112,83,301,10590.562,2754.163,-12177.204,636.947
3.238403,93,2231,-443,83,68,328,10598.426,2715.028,-12176.451,686.634
3.258392,153,2239,-404,42,55,330,10600.417,2675.439,-12180.803,732.577,360,-39,128,33876
3.278381,167,2189,-365,-10,41,322,10594.543,2634.510,-12192.150,775.834
3.298400,178,2106,-335,-71,30,331,10580.864,2590.488,-12210.699,817.886,351,-48,114
3.318389,223,2068,-336,-124,21,351,10562.240,2543.615,-12233.709,860.752
3.338379,271,2028,-295,-149,17,374,10542.292,2495.373,-12257.641,904.907
3.358398,280,2024,-298,-149,19,377,10522.215,2447.720,-12281.213,948.097
3.378387,281,2049,-258,-146,16,364,10503.089,2401.944,-12303.335,989.526
3.398376,277,2083,-249,-136,16,347,10485.316,2358.650,-12323.533,1029.998,374,-45,111
3.418365,288,2141,-229,-123,24,334,10468.481,2318.764,-12341.884,1071.243
3.438385,263,2153,-146,-117,44,318,10451.493,2284.498,-12358.919,1113.510
3.458404,236,2162,-153,-115,72,291,10433.796,2259.352,-12374.558,1156.271
3.478363,209,2163,-175,-113,116,247,10416.722,2246.267,-12387.162,1199.930
3.498443,191,2162,-160,-100,166,194,10401.167,2247.213,-12395.651,1244.606,389,-46,119
3.518371,170,2134,-164,-81,224,132,10388.653,2262.486,-12398.898,1288.334
3.538391,154,2117,-190,-53,266,57,10379.508,2291.171,-12397.074,1328.286
3.558380,137,2054,-179,-32,292,-22,10373.569,2332.902,-12390.598,1362.035
3.578369,98,2043,-167,-14,311,-105,10370.561,2387.031,-12379.909,1388.101
3.598358,71,2038,-173,4,318,-186,10370.579,2450.870,-12365.314,1406.691,388,-61,113
3.618377,35,2089,-187,17,320,-253,10372.241,2522.590,-12348.122,1418.613
3.638366,4,2116,-169,20,317,-313,10374.332,2600.183,-12329.611,1424.222
3.658386,-21,2140,-198,15,310,-355,10375.703,2680.288,-12311.311,1424.043
3.678375,-21,2159,-157,2,290,-379,10376.043,2758.803,-12294.302,1418.557
3.698364,-28,2152,-165,-14,256,-382,10374.978,2831.833,-12279.757,1408.383,414,-64,113
3.718383,-31,2144,-143,-30,213,-362,10371.912,2896.627,-12268.689,1395.590
3.738372,-44,2125,-94,-50,173,-327,10365.587,2951.903,-12262.344,1382.470
3.758361,-43,2110,-70,-80,142,-280,10355.181,2998.976,-12261.037,1370.682,414,-64,113,33853
3.778381,-76,2100,-18,-107,125,-231,10341.182,3039.266,-12263.959,1361.454
3.798370,-55,2090,22,-128,118,-190,10323.872,3075.198,-12270.313,1354.872,404,-61,104
3.818359,-58,2040,65,-147,118,-163,10304.698,3109.367,-12278.384,1349.729
3.838379,-32,2021,46,-152,116,-152,10285.429,3140.167,-12287.068,1346.363
3.858398,-19,2037,64,-144,109,-124,10268.061,3163.863,-12295.487,1346.593
3.878387,0,2017,82,-123,94,-73,10253.755,3177.434,-12303.324,1352.057
3.898376,-6,2003,75,-96,76,-12,10240.396,3182.142,-12312.114,1362.183,395,-54,104
3.918365,-21,2125,158,-96,65,39,10225.498,3180.823,-12323.470,1374.440
3.938354,-56,2099,226,-113,54,66,10203.670,3179.212,-12340.797,1384.871
3.958343,-69,2061,257,-189,54,58,10167.613,3185.147,-12368.646,1387.994
3.978363,-92,2021,291,-310,63,0,10118.087,3204.359,-12405.217,1379.284
3.998352,-70,2004,409,-404,66,-94,10061.855,3235.358,-12445.111,1358.734,388,-59,113
4.018371,-91,2128,509,-441,57,-169,10001.780,3271.059,-12487.254,1329.850
4.038360,-111,2159,562,-479,38,-196,9936.963,3305.017,-12533.418,1297.103
4.058349,-125,2074,604,-509,19,-180,9870.517,3331.963,-12581.830,1266.456
4.078338,-112,2009,578,-499,7,-122,9809.021,3347.820,-12627.761,1245.106
4.098358,-145,1916,562,-430,10,-38,9760.190,3353.050,-12664.887,1237.668,391,-62,123
4.118377,-190,1861,478,-306,32,31,9727.772,3356.530,-12688.324,1243.385
4.138366,-151,1868,428,-166,85,42,9713.924,3365.445,-12694.861,1260.710
4.158355,-126,1893,363,-15,138,19,9718.701,3379.387,-12684.825,1287.340
4.178375,-98,1928,330,121,178,6,9737.423,3393.607,-12662.943,1323.377
4.198364,-46,2015,314,214,207,30,9763.061,3404.059,-12635.430,1369.810,377,-65,119
4.218353,-26,2054,224,258,234,75,9789.785,3411.332,-12606.700,1424.590
4.238372,1,2047,160,266,258,108,9815.397,3418.662,-12577.776,1485.171
4.258361,43,2053,65,267,286,119,9842.545,3427.501,-12546.341,1549.615,377,-65,119,33896
4.278350,72,2092,28,296,304,117,9876.098,3437.962,-12508.593,1616.670
4.298339,91,2100,-92,353,312,101,9918.154,3449.698,-12463.067,1684.393,371,-68,143
4.318359,123,2114,-149,415,310,84,9968.998,3462.073,-12409.666,1751.787
4.338348,120,2153,-236,478,301,64,10026.885,3474.118,-12350.170,1816.815
4.358368,132,2204,-286,510,282,50,10086.046,3485.040,-12289.564,1878.354
4.378357,145,2282,-313,493,260,39,10138.548,3495.982,-12234.780,1932.234
4.398346,152,2264,-285,409,229,18,10177.878,3508.459,-12191.674,1974.845,392,-59,145
4.418335,160,2221,-304,280,194,-6,10201.633,3522.433,-12162.785,2005.305
4.438354,123,2177,-303,154,154,-24,10212.584,3535.745,-12146.274,2026.104
4.458404,118,2167,-335,55,123,-26,10213.528,3548.604,-12139.460,2039.656
4.478363,89,2132,-315,-23,99,-32,10207.577,3562.555,-12138.866,2048.643
4.498352,70,2134,-304,-69,92,-43,10197.452,3579.075,-12141.435,2055.034,401,-70,123
4.518341,59,2150,-284,-94,100,-53,10184.571,3599.185,-12145.210,2061.478
4.538330,63,2160,-246,-111,120,-66,10168.995,3624.668,-12149.337,2069.383
4.558349,82,2207,-206,-125,153,-82,10149.866,3655.746,-12154.321,2079.342
4.578338,72,2200,-167,-146,184,-93,10125.400,3691.926,-12161.924,2090.214
4.598327,70,2146,-152,-188,208,-104,10095.302,3732.638,-12172.601,2101.312
4.618316,47,2099,-140,-219,231,-115,10062.146,3777.582,-12184.111,2113.285,409,-61,97
4.638336,28,2080,-112,-225,250,-127,10029.842,3826.155,-12193.260,2126.647
4.658325,45,2099,-97,-205,268,-143,10000.758,3878.096,-12198.226,2141.007
4.678405,18,2104,-80,-174,281,-159,9974.430,3931.351,-12200.224,2155.272
4.698364,37,2118,-74,-162,279,-170,9948.215,3984.662,-12202.201,2167.307
4.718414,44,2152,-47,-172,265,-176,9919.781,4036.394,-12206.820,2175.877,390,-66,97
4.738342,33,2175,48,-200,242,-173,9887.855,4085.733,-12215.626,2179.686
4.758331,19,2152,89,-238,213,-171,9850.621,4132.083,-12230.514,2177.410,390,-66,97,33882
4.778350,-16,2109,119,-291,178,-162,9807.494,4175.664,-12251.718,2169.731
4.798339,-39,2064,137,-336,151,-161,9762.009,4216.963,-12276.062,2157.343
4.818328,-11,2017,156,-346,122,-158,9719.672,4254.507,-12299.333,2142.192,402,-66,106
4.838317,-43,2003,161,-312,94,-154,9686.712,4286.597,-12316.872,2126.690
4.858337,-37,2003,190,-235,65,-145,9665.892,4311.378,-12326.922,2113.045
4.878326,-77,2054,190,-146,37,-125,9656.516,4330.192,-12329.547,2102.101
4.898315,-81,2092,184,-69,21,-112,9654.916,4345.186,-12326.851,2094.309
4.918335,-90,2112,158,-27,19,-96,9656.757,4357.606,-12321.802,2089.719,390,-61,113
4.938324,-106,2111,103,-3,24,-80,9660.287,4368.421,-12315.277,2089.288
4.958343,-91,2074,78,17,40,-65,9666.211,4378.680,-12306.261,2093.533
4.978302,-85,2067,56,48,57,-51,9676.964,4388.146,-12292.655,2103.946
4.998321,-76,2036,-33,100,78,-37,9694.948,4395.503,-12272.821,2121.519
5.018310,-56,2070,-32,168,93,-17,9720.686,4399.836,-12246.694,2145.603,385,-66,122
5.038330,-39,2101,-114,232,99,1,9753.720,4400.581,-12215.049,2174.359
5.058319,-13,2134,-142,287,95,17,9792.118,4397.581,-12179.820,2205.249
5.078338,-13,2160,-150,315,84,29,9832.850,4390.567,-12143.776,2236.538
5.098327,-32,2186,-222,323,66,44,9874.011,4380.604,-12108.456,2266.038
5.118316,1,2162,-257,315,47,44,9915.014,4370.044,-12073.846,2291.914,387,-65,128
5.138336,-9,2140,-285,309,31,33,9956.234,4359.444,-12039.456,2314.208
5.158294,-10,2142,-260,302,17,22,9997.585,4348.917,-12005.283,2333.197
5.178314,11,2173,-249,295,3,12,10037.837,4338.320,-11972.487,2348.570
5.198303,12,2162,-277,272,-10,0,10074.527,4328.161,-11943.155,2359.537
5.218322,0,2180,-314,235,-26,-10,10107.977,4318.711,-11917.212,2364.956,375,-41,123
5.238311,11,2173,-303,202,-45,-25,10138.478,4309.177,-11894.661,2365.319
5.258331,33,2182,-314,173,-66,-32,10166.139,4298.492,-11875.724,2361.184,375,-41,123,33859
5.278320,35,2192,-280,142,-90,-36,10191.637,4284.562,-11860.401,2353.586
5.298309,33,2208,-303,122,-117,-24,10214.833,4267.412,-11848.779,2342.698
5.318298,32,2205,-288,94,-141,-14,10234.991,4246.406,-11841.615,2329.069,383,-45,120
5.338287,42,2168,-301,63,-161,4,10251.875,4222.122,-11838.464,2314.940
5.358306,34,2174,-250,43,-169,24,10265.123,4196.229,-11838.706,2302.035
5.378295,37,2108,-226,17,-163,42,10274.746,4171.770,-11841.151,2290.959
5.398285,37,2041,-235,-3,-141,45,10280.355,4151.370,-11845.162,2282.100
5.418304,51,2091,-203,-25,-110,40,10281.585,4134.743,-11850.984,2276.513,382,-43,100
5.438293,82,2149,-229,-44,-76,45,10279.036,4121.399,-11857.805,2276.706
5.458404,73,2191,-241,-55,-33,59,10273.077,4110.477,-11865.223,2284.686
5.478302,80,2185,-220,-60,12,84,10264.992,4102.182,-11871.933,2301.018
5.498291,75,2170,-211,-50,63,99,10257.906,4098.054,-11874.868,2324.708
5.518310,106,2151,-228,-15,107,95,10254.062,4099.764,-11871.811,2354.077,385,-47,102
5.538299,112,2121,-252,24,154,72,10253.950,4108.666,-11862.271,2386.907
5.558288,130,2108,-238,60,190,38,10258.764,4125.038,-11845.481,2421.121
5.578308,125,2046,-269,106,218,-4,10269.079,4147.693,-11821.147,2457.352
5.598297,109,2017,-296,156,247,-34,10286.278,4175.150,-11788.414,2495.864
5.618316,91,2067,-301,220,269,-64,10311.820,4207.474,-11745.942,2536.099,383,-38,95
5.638305,45,2181,-261,282,291,-102,10341.496,4248.014,-11696.620,2575.338
5.658294,-21,2249,-255,293,318,-163,10366.704,4303.185,-11646.853,2607.739
5.678314,-53,2295,-194,225,353,-253,10380.644,4377.159,-11602.192,2628.168
5.698303,-46,2272,-197,113,384,-356,10381.821,4467.462,-11564.870,2636.053
5.718292,-75,2213,-175,7,402,-429,10371.704,4567.457,-11534.794,2636.294,389,-39,96
5.738281,-112,2168,-140,-75,411,-462,10353.717,4671.261,-11510.221,2632.512
5.758300,-102,2144,-182,-123,415,-464,10332.074,4774.638,-11488.164,2628.420,389,-39,96,33880
5.778289,-164,2067,-116,-133,416,-448,10310.428,4874.725,-11466.039,2626.310
5.798278,-195,2085,-140,-115,407,-425,10292.837,4970.290,-11440.844,2626.070
5.818267,-210,2058,-165,-69,392,-413,10282.567,5061.394,-11409.625,2628.114,395,-45,95
5.838287,-192,2080,-134,-8,380,-403,10278.485,5145.747,-11374.038,2634.524
5.858276,-135,2051,-148,41,365,-361,10278.369,5218.237,-11337.951,2647.911
5.878295,-142,1976,-162,79,339,-284,10280.240,5275.113,-11304.958,2668.929
5.898285,-125,1996,-216,97,304,-182,10282.778,5314.301,-11277.176,2698.781
5.918274,-102,2055,-210,115,268,-68,10287.728,5334.861,-11253.435,2738.164,387,-39,94
5.938354,-63,2108,-265,152,229,40,10297.525,5337.567,-11231.387,2786.169
5.958282,-21,2140,-295,196,187,130,10312.203,5323.688,-11210.677,2841.296
5.978302,12,2146,-309,238,145,216,10330.381,5295.820,-11191.590,2901.941
5.998291,73,2139,-324,267,110,284,10351.729,5255.252,-11173.979,2966.757
6.018280,123,2075,-344,291,72,345,10375.467,5203.123,-11157.959,3035.222,357,-19,90
6.038269,141,2128,-348,313,40,400,10400.345,5142.155,-11143.793,3105.218
6.058288,153,2133,-378,312,11,429,10423.680,5077.559,-11132.893,3171.657
6.078277,176,2145,-359,277,-17,423,10443.081,5014.184,-11126.882,3229.234
6.098266,208,2114,-381,219,-41,393,10456.103,4955.578,-11126.800,3277.485
6.118255,176,2069,-409,149,-48,354,10463.751,4905.306,-11130.018,3317.532,363,-24,82
6.138275,194,2090,-382,100,-38,297,10468.136,4866.871,-11132.770,3350.903
6.158294,185,2095,-406,74,-10,225,10471.907,4842.458,-11131.774,3377.690
6.178283,139,2111,-387,66,22,135,10475.774,4832.728,-11126.100,3398.269
6.198272,118,2135,-414,51,60,48,10479.863,4839.602,-11114.846,3412.675
6.218292,88,2097,-406,47,104,-52,10486.627,4862.590,-11095.428,3422.394,375,-27,68
6.238281,90,2095,-453,71,150,-139,10498.315,4896.938,-11066.782,3430.328
6.258270,89,2153,-449,114,185,-201,10516.464,4937.967,-11028.424,3439.441,375,-27,68,33882
6.278289,82,2175,-462,168,209,-240,10540.156,4982.632,-10982.586,3449.162
6.298278,46,2257,-473,207,220,-268,10567.416,5029.779,-10932.472,3456.519
6.318267,22,2215,-444,220,212,-299,10595.597,5078.984,-10881.887,3457.918,384,-36,50
6.338287,1,2193,-419,198,194,-331,10619.571,5131.920,-10835.754,3451.080
6.358276,-23,2125,-425,134,178,-362,10637.123,5187.831,-10797.105,3434.526
6.378265,-24,2012,-368,58,150,-384,10647.582,5244.079,-10767.974,3408.049
6.398254,-10,2063,-361,-20,111,-390,10653.737,5295.123,-10747.499,3374.351
6.418274,-43,2116,-336,-56,54,-361,10661.155,5333.113,-10732.521,3338.578,395,-28,60
6.438263,-102,2145,-406,-44,-12,-304,10672.150,5358.584,-10719.709,3303.643
6.458252,-127,2151,-385,-20,-51,-258,10686.614,5376.748,-10705.748,3272.502
6.478241,-148,1985,-392,15,-58,-227,10704.230,5389.569,-10689.195,3247.851
6.498260,-135,2015,-450,55,-51,-183,10723.493,5398.524,-10669.605,3233.818
6.518249,-137,2020,-455,105,-17,-134,10746.119,5404.371,-10643.747,3234.157,382,-17,57
6.538269,-145,2093,-522,178,33,-86,10771.845,5409.526,-10610.328,3249.730
6.558258,-152,2121,-548,242,92,-50,10800.474,5416.074,-10568.811,3278.957
6.578277,-158,2097,-605,307,150,-29,10831.651,5425.676,-10519.303,3319.196
6.598266,-148,2097,-577,356,209,-24,10863.854,5442.550,-10462.104,3366.769
6.618255,-132,2038,-551,382,271,-47,10891.330,5469.118,-10402.909,3417.980,372,-8,54
6.638244,1,2158,-464,342,332,-66,10905.358,5506.717,-10352.098,3466.804
6.658264,-92,2168,-430,211,373,-83,10896.359,5554.741,-10321.823,3508.506
6.678253,-24,2193,-329,2,407,-75,10860.384,5611.388,-10318.618,3539.197
6.698272,-18,2168,-329,-238,404,-61,10800.279,5674.054,-10341.639,3555.983
6.718261,-4,2143,-260,-436,380,-58,10726.254,5737.006,-10382.090,3561.160,357,-4,58
6.738250,20,2151,-250,-535,337,-49,10650.557,5793.613,-10428.508,3561.086
6.758270,21,2179,-286,-523,288,-25,10585.582,5837.043,-10468.505,3566.542,357,-4,58,33875
6.778259,65,2201,-256,-393,253,27,10537.622,5863.286,-10495.277,3586.778
6.798248,100,2208,-319,-222,228,106,10504.648,5871.040,-10510.819,3625.102
6.818237,135,2182,-261,-78,210,205,10482.342,5859.114,-10520.203,3681.309,363,-3,48
6.838256,209,2121,-235,26,189,320,10462.575,5829.369,-10531.500,3751.791
6.858245,268,2090,-182,53,170,437,10437.943,5785.690,-10551.267,3831.623
6.878265,309,2021,-262,26,148,538,10408.067,5729.853,-10580.614,3914.967
6.898254,366,2039,-269,3,110,608,10377.844,5663.226,-10613.928,4001.023
6.918243,413,2220,-359,23,81,657,10352.865,5588.535,-10643.705,4090.650,357,-4,49
6.938232,444,2330,-336,89,64,676,10337.004,5507.476,-10664.310,4185.926
6.958252,481,2314,-362,178,64,683,10327.048,5423.955,-10675.820,4288.948
6.978241,476,2201,-186,238,97,697,10316.564,5343.635,-10681.706,4398.937
6.998230,468,2093,-237,247,154,695,10296.550,5273.899,-10689.086,4510.642
7.018249,497,2007,-242,163,213,668,10261.625,5222.423,-10703.186,4615.473,369,-7,53
7.038238,426,1810,-139,23,267,594,10210.968,5196.780,-10724.825,4705.653
7.058227,414,1720,-110,-136,319,469,10148.472,5201.082,-10751.390,4774.965
7.078247,414,1772,-158,-269,351,293,10084.530,5232.518,-10776.161,4820.041
7.098236,392,1943,-208,-321,354,102,10031.323,5282.839,-10789.761,4845.686
7.118225,446,2135,-208,-281,344,-59,9992.026,5341.140,-10789.472,4863.573,389,2,45
7.138244,490,2273,-266,-198,343,-127,9963.433,5394.209,-10778.386,4888.181
7.158325,496,2432,-291,-92,350,-85,9943.604,5432.129,-10759.125,4928.832
7.178222,483,2444,-258,31,352,8,9934.154,5453.224,-10731.852,4983.745
7.198242,424,2435,-261,141,339,75,9932.153,5466.055,-10699.444,5043.005
7.218231,417,2282,-249,189,315,71,9935.442,5479.602,-10664.811,5094.916,432,-10,38
7.238250,433,2104,-249,181,279,18,9939.499,5496.132,-10633.636,5134.209
7.258239,446,1963,-240,130,231,-26,9941.634,5512.417,-10610.522,5160.369,432,-10,38,33876
7.278228,437,1865,-217,71,165,-42,9942.216,5524.167,-10595.764,5176.981
7.298217,408,1801,-190,33,104,-29,9940.746,5530.034,-10589.721,5185.898
7.318237,402,1724,-178,-12,45,-18,9935.247,5534.285,-10593.054,5185.092,417,-24,38
7.338226,344,1803,-181,-89,-3,-29,9923.885,5543.754,-10606.170,5169.901
7.358215,333,1967,-165,-184,-42,-85,9909.607,5563.218,-10625.547,5136.485
7.378234,284,2165,-181,-263,-78,-176,9895.135,5592.550,-10647.281,5087.290
7.398223,275,2298,-168,-306,-102,-253,9882.493,5626.950,-10668.281,5029.609
7.418212,208,2308,-164,-307,-116,-287,9873.910,5661.489,-10685.477,4970.859,427,-29,27
7.438232,190,2369,-201,-266,-113,-299,9874.658,5692.721,-10692.894,4917.469
7.458252,169,2478,-192,-153,-104,-300,9890.846,5716.923,-10684.868,4874.112
7.478241,144,2551,-132,-6,-97,-290,9916.961,5735.403,-10666.586,4839.255
7.498230,136,2587,-65,55,-83,-275,9940.447,5752.273,-10650.405,4806.576
7.518219,143,2516,21,10,-88,-251,9951.807,5768.155,-10647.634,4770.035,433,-26,33
7.538208,142,2305,79,-115,-111,-202,9944.208,5781.991,-10666.666,4726.411
7.558227,156,2015,88,-281,-148,-140,9918.260,5792.364,-10708.366,4673.645
7.578216,182,1808,100,-421,-199,-87,9882.275,5794.940,-10765.626,4614.762
7.598236,196,1704,118,-478,-256,-28,9847.089,5783.041,-10829.232,4555.704
7.618225,184,1589,136,-438,-323,39,9820.733,5752.222,-10891.508,4502.845,424,-15,41
7.638214,153,1575,140,-339,-372,121,9804.334,5704.224,-10948.994,4460.025
7.658203,167,1634,139,-239,-392,189,9796.018,5645.676,-10999.867,4427.498
7.678222,103,1699,165,-156,-386,231,9793.303,5583.970,-11043.234,4403.739
7.698211,52,1745,129,-94,-354,229,9797.020,5527.649,-11076.316,4383.395
7.718231,-3,1779,123,-35,-316,172,9809.441,5484.319,-11095.829,4360.633,420,-17,38
7.738220,-38,1847,35,15,-277,57,9832.078,5457.319,-11100.552,4331.406
7.758209,-50,2065,28,68,-244,-69,9866.872,5441.513,-11090.082,4298.867,420,-17,38,33882
7.778198,-79,2182,-34,155,-226,-155,9914.452,5428.243,-11065.979,4268.178
7.798217,-85,2333,-70,250,-214,-181,9970.095,5412.809,-11032.681,4244.300
7.818206,-132,2371,-83,314,-193,-162,10027.304,5394.899,-10995.222,4229.509,417,-22,61
7.838226,-177,2293,-146,339,-159,-128,10081.494,5377.956,-10956.944,4221.595
7.858215,-214,2306,-196,333,-121,-113,10134.534,5366.427,-10915.378,4216.947
7.878204,-223,2218,-260,349,-81,-141,10191.807,5362.107,-10864.713,4215.248
7.898193,-256,2187,-329,402,-35,-180,10253.715,5364.754,-10803.335,4219.493
7.918212,-313,2239,-330,459,23,-208,10320.193,5374.447,-10730.861,4230.011,421,-35,79
7.938202,-315,2198,-361,512,78,-244,10388.512,5393.722,-10650.268,4241.910
7.958221,-361,2164,-349,516,121,-300,10454.404,5424.632,-10567.963,4246.456
7.978210,-387,2005,-315,461,130,-375,10514.664,5466.575,-10489.922,4237.376
7.998199,-392,1861,-304,377,117,-447,10569.263,5517.435,-10418.013,4212.960
8.018188,-415,1779,-314,298,90,-510,10620.209,5573.857,-10351.208,4175.068,416,-21,65
8.038208,-429,1760,-345,242,62,-560,10669.034,5632.524,-10288.289,4127.095
8.058197,-468,1757,-348,201,30,-583,10716.100,5689.189,-10229.641,4072.860
8.078216,-495,1808,-375,173,-3,-579,10762.824,5739.764,-10175.093,4014.925
8.098205,-499,1843,-432,166,-50,-558,10812.339,5780.129,-10123.284,3954.489
8.118194,-509,2016,-444,180,-108,-522,10866.362,5807.628,-10072.383,3895.660,407,-14,56
8.138214,-510,2096,-431,219,-157,-470,10922.680,5819.878,-10024.552,3842.900
8.158203,-511,2233,-483,235,-200,-377,10974.963,5817.038,-9986.908,3795.966
8.178192,-482,2299,-442,195,-245,-275,11019.121,5801.391,-9964.574,3750.402
8.198211,-478,2263,-462,114,-295,-194,11053.439,5776.040,-9959.550,3701.571
8.218200,-448,2176,-459,19,-348,-135,11080.097,5741.533,-9969.306,3648.919,398,-15,38
8.238189,-439,2176,-460,-49,-401,-77,11102.768,5697.293,-9988.805,3595.637
8.258209,-415,2127,-430,-74,-440,-21,11123.599,5642.133,-10014.251,3547.123,398,-15,38,33890
8.278198,-373,2140,-430,-72,-462,57,11142.657,5575.400,-10044.176,3508.000
8.298187,-314,2135,-429,-57,-473,148,11159.239,5497.169,-10078.301,3480.773
8.318206,-282,2222,-367,-50,-469,249,11170.727,5410.193,-10117.714,3465.828,365,-1,38
8.338195,-239,2185,-362,-56,-453,336,11175.939,5317.998,-10162.692,3460.116
8.358184,-235,2153,-318,-84,-434,400,11172.481,5226.217,-10213.777,3460.711
8.378265,-199,2139,-277,-135,-395,431,11159.333,5141.249,-10269.604,3465.185
8.398193,-215,2042,-221,-184,-334,430,11138.709,5068.617,-10325.854,3471.376
8.418182,-235,2028,-193,-220,-266,384,11112.447,5014.245,-10379.632,3474.124,366,-11,42
8.438202,-228,1985,-175,-259,-195,291,11081.699,4982.431,-10429.791,3467.883
8.458191,-218,1928,-119,-303,-130,163,11048.387,4972.867,-10474.556,3452.948
8.478180,-203,1858,-120,-320,-65,55,11015.007,4979.037,-10512.820,3434.362
8.498169,-203,1990,-124,-310,-15,-11,10985.088,4992.092,-10543.228,3417.989
8.518188,-189,2090,-99,-254,13,-31,10963.055,5005.016,-10563.687,3406.638,368,-3,45
8.538177,-207,2207,-117,-171,23,-35,10949.782,5014.027,-10575.103,3400.651
8.558197,-195,2282,-153,-94,19,-21,10945.009,5016.220,-10579.004,3400.651
8.578186,-246,2190,-160,-17,6,11,10946.924,5011.691,-10577.511,3405.802
8.598175,-298,2164,-190,34,-2,33,10951.971,5005.912,-10572.850,3412.542
8.618194,-338,2107,-157,47,3,24,10956.951,5004.902,-10567.088,3415.883,387,-10,52
8.638183,-324,1996,-153,26,11,-16,10958.535,5012.966,-10562.888,3411.964
8.658172,-330,1895,-167,-24,25,-75,10956.486,5029.519,-10560.679,3401.006
8.678161,-295,1930,-211,-58,30,-117,10954.525,5047.908,-10558.190,3387.782
8.698181,-266,1965,-267,-46,25,-116,10956.637,5059.466,-10552.967,3379.976
8.718170,-223,2067,-264,11,14,-60,10963.771,5057.918,-10544.694,3384.974,390,-14,60
8.738189,-175,2139,-268,82,11,38,10973.521,5042.349,-10534.635,3407.851
8.758178,-146,2176,-275,135,27,150,10983.240,5017.209,-10524.065,3446.091,390,-14,60,33869
8.778167,-129,2143,-271,168,46,229,10991.396,4987.536,-10514.389,3492.385
8.798187,-119,2152,-275,167,56,262,10997.238,4958.346,-10506.648,3538.549
8.818176,-86,2103,-288,141,57,249,10998.603,4934.823,-10502.540,3579.152,389,-15,64
8.838165,-100,2125,-317,82,64,211,10995.133,4920.495,-10501.711,3611.825
8.858154,-105,2189,-305,33,75,150,10988.860,4916.083,-10501.838,3636.470
8.878173,-127,2303,-254,-2,89,89,10980.192,4922.198,-10502.475,3652.506
8.898162,-159,2307,-211,-48,102,14,10966.194,4942.388,-10506.495,3655.731
8.918151,-181,2282,-120,-135,111,-81,10943.518,4978.667,-10517.802,3641.915,397,-11,72
8.938171,-211,2274,-101,-249,111,-179,10911.573,5028.657,-10537.529,3611.935
8.958160,-262,2212,-72,-353,107,-258,10873.508,5088.655,-10562.922,3568.267
8.978149,-301,2082,-27,-415,100,-319,10833.422,5154.326,-10589.610,3516.458
8.998169,-319,1977,-29,-434,94,-358,10794.593,5222.437,-10614.046,3461.266
9.018158,-314,1881,-26,-414,92,-372,10760.799,5287.752,-10633.266,3407.927,405,-10,61
9.038147,-306,1794,-13,-356,85,-358,10734.115,5344.531,-10646.213,3362.789
9.058166,-304,1779,11,-271,76,-300,10714.702,5388.885,-10653.595,3330.375
9.078155,-309,1854,4,-190,71,-219,10700.593,5421.186,-10657.697,3310.133
9.098175,-289,1903,-25,-126,61,-146,10691.696,5442.447,-10659.077,3299.533
9.118164,-260,1971,-42,-68,48,-85,10688.348,5452.597,-10657.758,3297.881,395,-23,60
9.138153,-235,2094,-53,-7,33,-21,10691.061,5450.110,-10653.700,3306.299
9.158142,-213,2069,-64,60,12,48,10699.680,5435.230,-10647.258,3323.620
9.178161,-204,2071,-106,114,-4,113,10712.183,5409.698,-10639.930,3348.378
9.198150,-228,2100,-122,155,-22,174,10727.697,5375.999,-10631.544,3379.476
9.218139,-225,2185,-180,191,-32,216,10747.408,5337.236,-10619.481,3416.019,381,-19,81
9.238159,-263,2379,-217,241,-29,235,10773.892,5297.485,-10599.509,3456.261
9.258148,-245,2438,-184,303,-19,216,10805.501,5261.051,-10572.143,3496.814,381,-19,81,33882
9.278167,-275,2477,-146,326,-6,178,10834.054,5234.315,-10544.440,3532.058
9.298156,-311,2417,-180,267,23,117,10852.182,5223.659,-10522.778,3556.698
9.318145,-356,2315,-155,148,58,33,10856.352,5233.909,-10509.774,3567.338,383,-21,85
9.338134,-400,2127,-132,11,104,-65,10848.363,5266.258,-10503.407,3562.783
9.358154,-409,1954,-134,-104,145,-180,10832.277,5319.637,-10499.536,3543.784
9.378173,-412,1839,-130,-180,178,-293,10813.023,5389.344,-10493.945,3513.694
9.398162,-450,1760,-121,-206,206,-382,10795.695,5468.330,-10482.549,3478.785
9.418151,-469,1816,-117,-180,226,-433,10782.616,5550.764,-10463.043,3447.373,388,-11,81
9.438171,-460,1884,-131,-118,259,-432,10775.281,5631.217,-10434.089,3427.525
9.458160,-421,1908,-87,-32,292,-395,10771.938,5704.221,-10399.087,3423.687
9.478149,-408,2043,-114,38,320,-308,10769.102,5765.641,-10363.495,3437.618
9.498138,-356,2134,-84,83,336,-195,10764.155,5814.436,-10331.461,3467.223
9.518158,-346,2145,-113,95,345,-87,10753.203,5853.306,-10307.130,3507.980,381,-26,51
9.538147,-318,2111,-65,66,347,3,10735.977,5885.270,-10291.015,3554.269
9.558136,-277,2127,-63,31,341,61,10712.878,5912.844,-10282.194,3603.393
9.578125,-263,2151,-44,-4,337,106,10683.986,5937.584,-10279.744,3655.111
9.598205,-234,2165,-66,-37,343,143,10650.997,5960.301,-10281.114,3710.147
9.618133,-187,2184,-78,-49,353,176,10615.876,5978.904,-10284.468,3771.076,371,-19,74
9.638153,-102,2196,-66,-39,359,225,10581.457,5988.772,-10288.530,3840.436
9.658142,-52,2142,-72,0,347,290,10550.257,5986.741,-10292.915,3916.928
9.678131,5,2140,-38,37,313,347,10523.075,5973.391,-10298.507,3994.956
9.698120,48,2017,-29,59,260,382,10498.086,5950.933,-10308.009,4069.025
9.718139,76,1996,-24,46,200,400,10472.289,5921.557,-10324.451,4136.116,371,-11,56
9.738128,36,2002,-26,7,141,410,10446.089,5888.805,-10346.893,4192.662
9.758117,12,2055,17,-33,85,379,10420.635,5858.892,-10372.328,4234.856,371,-11,56,33929
9.778137,-6,2085,29,-79,43,308,10395.545,5838.204,-10399.084,4259.400
9.798126,-19,2090,48,-135,11,203,10370.996,5829.571,-10426.144,4264.915
9.818145,0,2088,34,-188,-12,89,10349.124,5831.674,-10451.125,4254.013,371,-9,65
9.838134,0,2075,49,-207,-34,-9,10333.584,5839.260,-10471.337,4231.620
9.858123,14,2030,-4,-179,-67,-78,10328.256,5844.890,-10485.019,4202.880
9.878143,-35,2059,16,-117,-114,-105,10335.981,5841.936,-10491.024,4172.902
9.898132,-106,2044,20,-21,-164,-103,10357.133,5829.108,-10488.852,4143.756
9.918121,-170,2042,31,66,-208,-103,10387.770,5812.862,-10479.871,4112.494,385,-16,46
9.938140,-208,2009,11,111,-229,-139,10423.185,5801.245,-10466.048,4074.315
9.958129,-228,1892,-24,112,-234,-207,10461.756,5796.860,-10447.468,4029.132
9.978118,-233,1786,-88,118,-231,-265,10504.123,5796.441,-10423.659,3980.882
9.998138,-267,1758,-151,151,-229,-291,10552.741,5793.760,-10393.254,3935.439
10.018158,-255,1815,-183,217,-233,-281,10608.794,5783.658,-10356.094,3897.376,390,-21,53
10.038116,-249,1919,-227,292,-238,-240,10669.025,5764.449,-10316.123,3867.307
10.058105,-244,2086,-209,329,-251,-185,10728.858,5735.986,-10278.879,3843.193
10.078125,-254,2258,-229,326,-267,-127,10784.047,5699.968,-10249.108,3821.767
10.098114,-240,2386,-219,283,-287,-69,10829.408,5657.429,-10232.270,3801.774
10.118103,-230,2523,-180,195,-307,2,10860.452,5609.148,-10233.363,3781.765,387,-24,57
10.138122,-211,2384,-172,74,-324,77,10876.963,5556.363,-10252.812,3759.492
10.158111,-168,2174,-177,-42,-344,130,10882.750,5500.535,-10285.787,3734.684
10.178100,-139,2015,-159,-109,-362,167,10885.662,5440.133,-10323.560,3710.370
10.198120,-79,1970,-163,-102,-378,196,10894.260,5372.951,-10356.707,3690.602
10.218109,-12,1893,-174,-24,-392,220,10910.572,5298.235,-10382.600,3677.658,385,-19,60
10.238128,8,1942,-149,46,-399,253,10931.249,5215.377,-10404.955,3671.508
10.258117,-1,1946,-174,90,-410,298,10953.763,5124.675,-10426.124,3672.076,385,-19,60,33882
10.278106,-11,1854,-163,118,-411,347,10975.311,5032.656,-10446.125,3678.157
10.298126,22,1824,-149,122,-380,358,10993.739,4948.244,-10463.590,3687.995
10.318115,15,1782,-150,116,-319,330,11008.977,4877.673,-10477.302,3697.609,381,-14,58
10.338104,-17,1794,-99,92,-255,264,11017.794,4826.000,-10490.467,3701.819
10.358093,-11,1848,-66,16,-189,167,11016.543,4799.446,-10506.662,3694.127
10.378112,-25,1963,-33,-93,-123,40,11004.506,4800.611,-10526.481,3672.004
10.398101,-33,2110,-55,-204,-59,-104,10983.862,4827.857,-10547.798,3636.749
10.418090,-25,2296,-30,-280,1,-227,10959.675,4872.902,-10567.055,3593.483,389,-22,54
10.438110,-9,2432,-81,-297,40,-308,10940.514,4925.214,-10578.737,3545.868
10.458160,28,2435,-112,-241,35,-361,10933.650,4972.927,-10579.265,3498.552
10.478118,49,2407,-71,-127,2,-356,10942.405,5005.269,-10568.066,3458.679
10.498108,67,2325,-70,11,-44,-288,10963.839,5015.969,-10549.830,3430.862
10.518097,23,2133,-49,116,-97,-179,10990.598,5006.158,-10532.459,3412.898,409,-23,60
10.538086,15,2005,-43,147,-148,-72,11016.620,4981.039,-10521.119,3400.707
10.558105,-5,1932,-71,140,-186,11,11041.274,4945.294,-10514.844,3392.315
10.578094,-39,1899,-68,138,-212,64,11064.465,4903.657,-10511.627,3387.165
10.598114,-13,1906,-93,127,-215,100,11083.372,4861.892,-10512.165,3383.885
10.618103,5,1860,-78,91,-201,110,11096.056,4824.144,-10517.270,3380.476,405,-15,64
10.638092,6,1813,-75,43,-176,106,11102.054,4792.530,-10526.466,3377.130
10.658081,-22,1892,-109,-5,-143,95,11102.767,4769.026,-10537.106,3374.875
10.678100,-30,2032,-125,-26,-95,73,11101.613,4755.857,-10544.469,3374.257
10.698089,-54,2179,-111,-22,-39,33,11101.566,4755.961,-10544.724,3373.468
10.718109,-80,2269,-125,0,15,-42,11104.573,4771.362,-10535.807,3369.682,394,-20,61
10.738098,-83,2294,-110,22,71,-136,11109.015,4802.544,-10519.410,3361.963
10.758087,-90,2283,-67,24,123,-217,11111.957,4847.285,-10499.290,3350.907,394,-20,61,33890
10.778106,-84,2179,-65,5,168,-274,11110.792,4901.475,-10479.432,3338.077
10.798095,-92,2167,-71,-31,200,-300,11105.489,4960.386,-10461.697,3324.305
10.818176,-103,2144,-87,-54,210,-305,11098.631,5019.554,-10445.198,3310.247,397,-19,74
10.838104,-142,2113,-93,-60,208,-302,11091.526,5077.085,-10429.602,3295.464
10.858093,-155,2005,-97,-64,195,-297,11085.431,5132.773,-10414.255,3278.197
10.878112,-142,1904,-106,-61,171,-303,11080.825,5185.618,-10399.361,3257.822
10.898101,-135,1836,-99,-61,142,-301,11078.154,5232.933,-10385.735,3234.633
10.918090,-145,1889,-141,-58,103,-288,11078.816,5272.502,-10372.509,3210.457,396,-17,68
10.938110,-162,1986,-151,-29,63,-264,11086.517,5301.507,-10356.743,3186.921
10.958068,-142,2050,-159,27,13,-231,11101.395,5319.054,-10338.248,3165.871
10.978088,-196,2149,-167,74,-28,-192,11119.595,5326.357,-10320.366,3148.015
10.998077,-185,2239,-207,88,-59,-143,11137.903,5325.729,-10305.305,3133.664
11.018066,-197,2323,-159,87,-76,-95,11153.275,5319.151,-10294.914,3124.302,389,-8,75
11.038086,-224,2355,-124,66,-75,-44,11162.148,5310.317,-10291.766,3118.008
11.058075,-226,2320,-65,11,-65,-10,11160.395,5304.626,-10298.334,3112.274
11.078064,-248,2308,-91,-80,-36,5,11146.047,5305.672,-10314.945,3106.897
11.098083,-235,2166,-92,-161,10,13,11123.189,5313.779,-10336.156,3104.468
11.118103,-219,2048,-49,-191,63,14,11097.272,5328.854,-10355.505,3106.895,372,-15,75
11.138092,-175,1963,-47,-178,111,6,11073.365,5347.714,-10368.912,3115.065
11.158081,-126,1940,-44,-126,144,3,11055.139,5365.428,-10374.396,3131.039
11.178100,-119,1931,-28,-55,160,27,11042.001,5377.365,-10374.364,3156.920
11.198089,-110,1941,2,5,165,77,11030.974,5383.007,-10373.154,3189.664
11.218078,-90,1971,44,20,161,117,11016.852,5385.506,-10376.498,3223.198,372,-15,77
11.238098,-84,2004,13,-26,145,135,10995.987,5388.122,-10388.370,3251.709
11.258087,-82,2029,17,-97,129,130,10970.003,5392.294,-10406.942,3273.101,372,-15,77,33880
11.278076,-85,2037,7,-148,113,110,10942.876,5398.091,-10427.658,3288.383
11.298065,-101,2016,-41,-157,98,82,10920.432,5405.120,-10443.924,3299.806
11.318084,-121,2012,-10,-118,87,50,10906.398,5413.169,-10451.142,3310.158,358,-8,75
11.338073,-149,2085,-44,-45,82,14,10902.605,5422.655,-10446.944,3320.362
11.358062,-161,2180,-68,30,88,-26,10906.225,5436.966,-10432.941,3329.088
11.378082,-188,2280,-47,75,102,-82,10913.688,5458.491,-10411.818,3335.528
11.398071,-184,2338,-75,95,123,-134,10921.944,5487.950,-10386.710,3338.444
11.418060,-153,2270,-49,86,145,-182,10927.465,5524.050,-10361.873,3338.023,374,-19,63
11.438049,-158,2181,-52,49,161,-208,10926.659,5563.418,-10342.346,3335.837
11.458068,-162,2123,-10,-6,169,-197,10916.916,5603.018,-10332.150,3333.053
11.478057,-129,2050,6,-85,175,-159,10893.996,5639.999,-10336.639,3331.751
11.498077,-115,1975,12,-187,178,-86,10856.856,5671.547,-10357.070,3335.980
11.518066,-79,1941,31,-275,189,13,10807.556,5695.097,-10391.156,3349.911,370,-15,77
11.538055,-31,1903,11,-326,200,119,10752.554,5707.887,-10432.449,3376.690
11.558075,1,1859,10,-311,208,227,10699.892,5707.804,-10473.088,3418.061
11.578094,69,1794,-25,-235,204,317,10655.843,5694.285,-10506.797,3474.301
11.598053,79,1909,4,-120,199,387,10626.108,5666.520,-10529.117,3542.529
11.618072,82,2011,3,33,167,432,10613.748,5628.285,-10536.571,3617.575,369,-23,85
11.638061,103,2139,-46,163,141,428,10612.437,5587.995,-10532.816,3694.009
11.658081,120,2196,-41,220,139,396,10616.030,5551.822,-10521.950,3768.445
11.678039,151,2249,-80,249,150,347,10624.034,5521.474,-10503.847,3840.294
11.698059,180,2352,-20,276,165,295,10631.933,5497.713,-10483.146,3908.481
11.718078,179,2357,-3,243,179,258,10631.253,5482.468,-10469.214,3968.624,377,-20,77
11.738037,185,2302,46,135,183,218,10618.864,5476.251,-10466.956,4016.048
11.758056,195,2188,40,17,172,174,10598.016,5478.017,-10474.331,4049.346,377,-20,77,33892
11.778045,201,2137,16,-78,151,121,10573.893,5485.633,-10486.396,4070.816
11.798034,198,2059,38,-118,123,70,10551.637,5496.426,-10498.800,4082.020
11.818054,208,1993,22,-130,94,17,10531.892,5509.582,-10510.436,4085.328,392,-21,85
11.838043,187,1949,23,-131,74,-15,10515.216,5523.235,-10520.083,4085.020
11.858062,133,1928,56,-118,61,-35,10500.565,5539.261,-10527.122,4082.871
11.878051,99,1961,53,-110,71,-58,10486.178,5561.095,-10531.713,4078.323
11.898071,48,1897,7,-114,90,-105,10473.032,5593.997,-10530.434,4070.404
11.918060,36,1864,2,-106,129,-177,10463.786,5637.962,-10520.288,4059.745,403,-34,66
11.938049,14,1904,40,-71,169,-246,10459.063,5692.289,-10499.943,4048.762
11.958038,5,2005,4,-32,211,-307,10457.631,5755.373,-10470.718,4038.951
11.978057,-5,2051,46,0,253,-350,10459.979,5824.314,-10433.027,4031.574
11.998046,-36,2192,44,44,282,-383,10466.442,5896.335,-10388.408,4025.325
12.018035,-58,2247,61,78,291,-406,10474.132,5969.253,-10341.225,4019.338,403,-32,66
12.038116,-59,2279,44,75,298,-405,10477.074,6041.758,-10297.771,4014.899
12.058044,-70,2314,81,42,308,-375,10474.150,6112.563,-10260.201,4011.540
12.078033,-57,2175,74,-2,303,-346,10465.804,6181.096,-10229.885,4005.730
12.098022,-53,2042,59,-45,277,-326,10457.302,6242.296,-10204.001,3999.045
12.118072,-60,1917,11,-33,237,-286,10453.115,6292.269,-10178.812,3995.865,398,-27,73
12.138031,-29,1923,31,17,201,-229,10456.252,6327.053,-10152.427,3999.857
12.158050,-40,1892,55,89,150,-157,10466.805,6344.808,-10125.967,4011.185
12.178039,-40,1949,22,150,99,-80,10481.274,6347.603,-10102.508,4028.100
12.198028,-73,1998,55,174,53,-12,10497.440,6339.170,-10083.122,4047.808
12.218048,-95,2035,-12,181,16,36,10513.526,6324.165,-10068.046,4067.012,394,-34,73
12.238037,-107,2072,-36,164,-11,64,10527.062,6306.798,-10057.494,4085.033
12.258026,-127,2139,-92,133,-17,75,10538.763,6289.229,-10049.365,4101.923,394,-34,73,33892
12.278045,-150,2256,-97,122,-16,75,10549.755,6274.772,-10039.723,4119.380
12.298034,-159,2283,-57,124,8,58,10559.076,6267.293,-10027.114,4137.556
12.318054,-159,2230,-113,117,51,29,10563.439,6269.337,-10013.919,4155.239,383,-23,72
12.338043,-163,2258,-106,78,97,0,10563.674,6281.358,-9999.208,4171.884
12.358032,-158,2233,-124,58,136,-42,10560.959,6302.409,-9983.621,4184.318
12.378051,-153,2157,-92,15,159,-92,10551.563,6334.164,-9971.983,4187.824
12.398040,-161,2074,-27,-70,171,-141,10534.525,6375.257,-9966.788,4180.722
12.418029,-159,1932,-5,-151,169,-182,10512.528,6422.345,-9966.506,4164.664,383,-21,69
12.438049,-167,1897,39,-203,162,-214,10488.601,6472.336,-9967.918,4144.171
12.458038,-220,1890,53,-216,160,-227,10463.303,6523.105,-9970.499,4122.251
12.478027,-272,1950,54,-229,164,-228,10437.475,6576.620,-9972.212,4098.488
12.498046,-250,2004,56,-231,169,-252,10413.527,6633.489,-9970.168,4072.647
12.518035,-224,2045,77,-213,177,-281,10391.751,6690.871,-9964.559,4048.055,382,-22,54
12.538024,-228,2016,87,-188,180,-277,10373.268,6741.546,-9957.096,4029.705
12.558014,-230,2038,93,-136,162,-221,10358.496,6780.102,-9949.976,4020.594
12.578033,-235,2078,85,-88,145,-146,10346.415,6805.204,-9944.491,4022.861
12.598022,-218,2133,81,-38,127,-51,10336.441,6816.927,-9941.749,4035.411
12.618011,-219,2170,69,-4,100,28,10329.153,6816.960,-9941.591,4054.361,385,-21,67
12.638031,-176,2163,68,29,71,84,10325.977,6807.354,-9941.810,4077.988
12.658020,-150,2151,92,66,44,130,10324.948,6788.505,-9944.122,4106.275
12.678009,-130,2093,103,77,22,185,10321.241,6760.613,-9953.239,4139.392
12.698028,-145,2067,96,62,4,257,10313.151,6725.983,-9969.105,4177.613
12.718017,-148,2034,71,44,6,312,10300.649,6690.923,-9987.364,4220.920,375,-13,71
12.738037,-126,2017,54,40,44,331,10283.764,6661.952,-10003.218,4270.090
12.757995,-106,2036,85,34,108,328,10260.966,6641.347,-10016.104,4326.451,375,-13,71,33902
12.778015,-60,2022,88,27,187,325,10232.269,6630.758,-10025.347,4388.799
12.798004,-9,2036,73,20,257,298,10202.371,6630.168,-10028.723,4451.137
12.818023,21,2013,81,26,290,244,10175.033,6636.566,-10026.333,4509.185,368,-10,68
12.838012,44,2056,56,37,293,183,10152.774,6647.680,-10018.367,4560.405
12.858001,51,2077,-6,56,273,119,10139.699,6660.698,-10003.529,4602.873
12.878021,44,2102,-27,95,235,50,10136.916,6673.632,-9982.224,4636.401
12.898010,38,2152,-54,125,185,-12,10143.727,6685.288,-9956.635,4659.673
12.918029,-10,2168,-73,150,128,-69,10158.104,6694.968,-9928.599,4674.256,378,-11,72
12.938018,-36,2245,-87,159,82,-100,10176.385,6703.628,-9900.058,4682.610
12.958007,-36,2340,-78,161,55,-118,10195.594,6711.151,-9873.801,4685.487
12.978027,-59,2332,-52,132,23,-126,10210.830,6718.149,-9854.688,4682.519
12.998016,-76,2290,-71,69,3,-117,10220.335,6725.021,-9843.379,4675.699
13.018005,-61,2180,-36,21,-4,-101,10226.902,6731.434,-9836.288,4667.027,384,-13,68
13.037994,-71,2036,-3,2,-10,-89,10231.982,6737.724,-9830.959,4658.035
13.058014,-46,1989,-37,-5,-12,-87,10237.535,6743.642,-9825.343,4649.110
13.078003,-44,2036,13,4,-15,-88,10243.814,6747.768,-9820.540,4639.431
13.097992,-31,2018,29,-6,-29,-82,10245.228,6751.521,-9821.999,4627.745
13.118011,-37,2039,29,-62,-35,-58,10239.382,6754.368,-9831.815,4615.669,402,-19,49
13.138000,-35,2087,77,-112,-36,-24,10227.999,6755.902,-9848.376,4603.339
13.157989,-62,2044,96,-150,-35,5,10210.081,6758.407,-9870.231,4592.619
13.178009,-59,1999,106,-188,-13,24,10186.991,6765.482,-9894.777,4580.643
13.197998,-69,1926,158,-223,3,4,10161.806,6778.786,-9918.741,4565.058
13.217987,-91,1869,140,-235,17,-31,10137.632,6797.490,-9938.384,4548.241,391,-15,54
13.238006,-101,1897,90,-213,39,-65,10118.957,6819.667,-9948.981,4533.437
13.258056,-126,1948,129,-148,59,-101,10107.989,6844.787,-9947.967,4522.257,391,-15,54,33892
13.278015,-130,2067,85,-79,87,-134,10103.980,6872.602,-9935.567,4516.289
13.298004,-156,2190,99,-4,112,-164,10108.636,6901.565,-9911.744,4514.048
13.318023,-173,2236,99,73,123,-196,10121.994,6929.951,-9877.665,4515.328,385,-19,53
13.337982,-157,2237,70,145,123,-215,10143.365,6955.631,-9835.893,4519.068
13.358001,-134,2187,31,207,113,-223,10171.073,6975.610,-9789.838,4525.995
13.377990,-152,2119,51,251,88,-202,10201.793,6987.603,-9745.496,4534.044
13.398010,-152,2085,38,253,49,-170,10230.907,6992.596,-9708.962,4539.121
13.417999,-141,2103,13,207,4,-135,10254.671,6991.917,-9684.740,4538.289,391,-15,59
13.437988,-149,2090,21,131,-43,-96,10273.213,6983.231,-9674.578,4531.396
13.458007,-123,2152,5,66,-107,-43,10286.716,6964.562,-9678.918,4520.213
13.477996,-149,2225,11,2,-164,22,10295.836,6936.103,-9696.540,4505.416
13.497985,-104,2171,33,-49,-225,78,10299.862,6899.275,-9725.988,4489.258
13.518005,-91,2093,4,-98,-257,139,10299.077,6855.766,-9764.378,4474.354,382,-13,66
13.537994,-81,1994,-32,-118,-273,194,10298.551,6805.666,-9804.931,4463.351
13.557983,-77,1937,-42,-90,-283,227,10301.550,6752.219,-9841.169,4457.850
13.578003,-79,1956,-17,-35,-268,234,10309.063,6698.538,-9869.235,4459.422
13.597992,-57,2006,-9,25,-237,229,10318.266,6647.601,-9890.733,4466.723
13.617981,-36,2013,-10,52,-197,224,10325.565,6601.632,-9908.239,4479.218,366,-9,56
13.637970,-9,2018,-6,58,-151,214,10332.157,6562.159,-9920.542,4494.761
13.657989,-42,2060,-47,76,-106,183,10340.103,6531.363,-9925.147,4511.145
13.677978,-25,2124,-27,98,-61,124,10350.998,6512.365,-9919.834,4525.292
13.697998,-24,2151,-23,114,-20,41,10362.941,6505.779,-9907.461,4534.526
13.717987,-19,2201,42,106,11,-35,10371.678,6511.329,-9893.552,4536.954,371,-16,51
13.737976,-23,2199,79,44,38,-92,10371.572,6528.417,-9885.471,4530.248
13.757965,-26,2229,96,-59,55,-130,10359.930,6555.139,-9887.363,4514.143,371,-16,51,33906
13.777984,-35,2199,135,-167,65,-152,10340.091,6589.243,-9896.322,4490.283
13.797973,-76,2181,88,-233,71,-178,10319.417,6627.214,-9905.981,4460.564
13.817962,-112,2118,74,-230,59,-216,10307.727,6665.997,-9907.286,4426.777,382,-17,43
13.837982,-117,2079,92,-156,34,-268,10309.888,6703.051,-9896.303,4390.208
13.857971,-121,1994,90,-64,6,-321,10323.127,6737.088,-9875.964,4352.640
13.877990,-142,1958,158,-7,-19,-340,10341.402,6766.101,-9853.257,4315.558
13.897979,-133,1909,128,13,-40,-315,10357.186,6787.037,-9837.028,4281.721
13.917968,-150,1974,59,-10,-63,-238,10368.668,6795.858,-9830.555,4254.720,387,-1,57
13.937988,-145,2019,61,-22,-88,-136,10378.212,6791.257,-9831.442,4236.711
13.957977,-121,2016,30,-3,-112,-41,10387.855,6775.036,-9836.548,4227.186
13.977966,-97,1994,45,19,-128,30,10397.964,6750.036,-9844.100,4224.745
13.997985,-104,1987,17,43,-141,88,10409.040,6717.867,-9853.143,4227.664
14.017974,-119,2083,-20,65,-150,124,10422.495,6682.879,-9859.765,4234.524,384,-17,61
14.037963,-122,2171,-15,98,-141,128,10439.210,6648.160,-9860.737,4245.722
14.057952,-80,2258,-13,142,-118,119,10458.686,6614.637,-9855.176,4263.027
14.077972,-51,2315,-7,182,-87,123,10478.113,6582.082,-9846.311,4286.131
14.097961,-50,2353,2,195,-59,135,10492.702,6553.207,-9838.902,4311.626
14.117950,-47,2243,40,153,-29,139,10497.564,6532.080,-9837.697,4334.539,370,-20,57
14.137970,-42,2170,68,64,3,123,10490.737,6521.694,-9844.509,4351.206
14.157959,-50,2062,61,-30,34,91,10475.947,6522.790,-9855.362,4360.621
14.177948,-18,1932,72,-92,58,41,10458.088,6532.543,-9866.145,4364.502
14.197967,-22,1878,38,-117,77,1,10440.558,6547.748,-9874.312,4365.218
14.217956,-18,1830,44,-107,85,-33,10428.861,6564.613,-9875.741,4364.617,369,-16,63
14.237945,-16,1891,67,-58,78,-67,10424.099,6581.069,-9870.491,4363.085
14.257965,-19,1991,74,-14,66,-92,10424.572,6595.900,-9860.900,4361.246,369,-16,63,33908
14.277954,-18,2119,54,19,55,-99,10428.387,6607.396,-9849.649,4360.150
14.297973,-29,2136,55,38,38,-88,10434.392,6614.517,-9838.359,4360.476
14.317962,-59,2155,-8,55,23,-68,10443.134,6616.645,-9826.447,4363.177,375,-24,61
14.337951,-27,2099,-18,88,9,-52,10458.008,6614.216,-9809.835,4368.613
14.357940,-32,2091,-97,147,-5,-51,10480.752,6606.872,-9786.005,4378.652
14.377960,-42,2149,-91,217,-11,-42,10509.051,6594.599,-9756.840,4394.384
14.397949,-10,2167,-56,264,-11,-22,10536.909,6578.501,-9728.449,4414.701
14.417938,-8,2255,-91,255,-7,19,10556.911,6560.945,-9708.064,4437.853,385,-19,49
14.437957,-21,2290,-66,187,5,67,10564.911,6543.928,-9700.565,4460.282
14.458007,-17,2303,-15,84,11,103,10556.579,6531.676,-9709.298,4478.928
14.477996,12,2219,49,-60,28,132,10528.242,6528.261,-9737.216,4489.987
14.497955,25,2153,98,-235,54,145,10481.990,6534.871,-9781.359,4492.639
14.517944,14,1968,99,-370,72,136,10426.262,6549.646,-9832.646,4488.842,388,-21,53
14.537963,19,1802,82,-424,94,108,10372.353,6572.330,-9878.567,4479.744
14.557952,-40,1716,87,-389,105,31,10330.761,6603.389,-9906.848,4467.708
14.577941,-59,1778,91,-281,131,-77,10305.337,6643.128,-9912.400,4455.181
14.597931,-61,1859,83,-156,164,-179,10293.386,6691.934,-9896.742,4444.562
14.634460,-79,1931,34,-51,206,-266,10291.629,6747.274,-9863.222,4439.476,400,-28,58
14.637939,-50,2079,-27,51,255,-317,10300.763,6804.173,-9812.659,4443.496
14.657959,-82,2100,-27,174,286,-335,10319.006,6858.404,-9748.740,4458.465
14.677948,-73,2109,-68,267,313,-321,10340.650,6908.516,-9679.598,4481.538
14.697937,-95,2160,-23,306,317,-294,10363.295,6953.893,-9610.474,4507.737
14.717926,-99,2201,-18,312,300,-271,10384.366,6994.696,-9546.802,4531.353,400,-28,58
14.737945,-85,2234,-46,269,264,-249,10399.684,7031.501,-9494.639,4548.827
14.757934,-85,2156,-33,185,218,-218,10407.348,7063.012,-9458.251,4558.275,400,-28,58,33906
14.777923,-87,2164,-45,91,163,-173,10409.466,7087.222,-9436.092,4561.785
14.797943,-103,2269,-62,33,112,-124,10410.182,7102.996,-9422.886,4562.916
14.817932,-127,2317,-4,16,66,-86,10410.662,7112.451,-9415.119,4563.127,390,-19,65
14.837951,-132,2288,15,-2,35,-61,10407.827,7120.680,-9412.838,4561.464
14.857940,-118,2207,21,-43,35,-51,10399.688,7131.397,-9415.831,4557.107
14.877929,-156,2082,67,-85,43,-49,10386.194,7146.713,-9422.533,4550.028
14.897918,-135,1879,72,-133,58,-59,10367.076,7168.648,-9431.947,4539.607
14.917938,-143,1796,87,-176,83,-81,10344.900,7197.367,-9440.964,4525.990,362,-14,53
14.937927,-162,1643,82,-189,109,-115,10323.708,7232.240,-9444.365,4511.669
14.957946,-183,1630,19,-165,136,-150,10306.023,7272.922,-9438.582,4498.786
14.977935,-204,1625,23,-119,166,-196,10294.643,7318.319,-9421.303,4487.426
14.997924,-177,1747,-20,-55,186,-244,10290.761,7365.193,-9392.885,4479.208
15.017913,-166,1798,-5,19,198,-270,10294.930,7409.483,-9355.448,4474.929,370,-10,57
15.037933,-161,1978,-77,89,187,-277,10306.953,7447.367,-9312.052,4474.880
15.057922,-182,2213,-116,154,163,-266,10328.052,7475.686,-9263.619,4479.538
15.077941,-187,2395,-105,235,123,-245,10358.681,7493.012,-9211.328,4487.691
15.097931,-168,2451,-100,293,70,-222,10396.464,7499.509,-9159.701,4495.130
15.117920,-159,2401,-128,312,-2,-205,10439.926,7494.486,-9114.023,4495.625,371,-7,63
15.137909,-146,2412,-133,295,-96,-182,10486.066,7476.662,-9079.593,4487.576
15.157928,-172,2311,-148,250,-193,-139,10530.154,7444.370,-9061.581,4474.413
15.177917,-175,2289,-169,184,-274,-49,10565.485,7399.345,-9064.180,4460.525
15.197937,-201,2174,-138,91,-317,66,10588.116,7345.183,-9086.966,4450.007
15.217926,-182,2110,-173,8,-328,176,10599.400,7285.587,-9123.545,4446.267,358,-5,61
15.237915,-151,1985,-130,-42,-309,264,10601.713,7225.489,-9166.790,4449.875
15.257904,-149,1868,-126,-67,-266,309,10598.188,7168.696,-9210.853,4459.127,358,-5,61,33890
15.277923,-84,1798,-102,-75,-222,317,10591.216,7119.361,-9251.145,4471.307
15.297912,-63,1781,-51,-72,-169,285,10582.287,7080.695,-9285.415,4482.796
15.317932,-68,1819,-39,-77,-118,227,10570.098,7054.465,-9314.959,4491.606,357,5,42
15.337921,-98,1880,9,-101,-62,174,10552.848,7042.682,-9340.595,4497.415
15.357910,-126,1883,-35,-132,-1,106,10532.483,7046.696,-9359.878,4498.777
15.377899,-117,1919,-24,-148,60,19,10513.389,7065.600,-9368.688,4495.448
15.397918,-103,2022,-37,-125,109,-72,10499.538,7094.739,-9364.338,4490.990
15.417907,-98,2072,-6,-70,144,-144,10492.726,7127.583,-9348.133,4488.661,355,5,46
15.437896,-103,2192,-45,0,161,-170,10490.748,7159.222,-9324.648,4491.780
15.457916,-96,2238,-35,50,170,-161,10491.444,7187.085,-9298.560,4499.737
15.477905,-89,2258,-10,72,165,-136,10490.124,7211.004,-9276.619,4509.821
15.497894,-96,2261,20,48,152,-100,10483.675,7230.687,-9263.967,4519.299
15.517913,-79,2160,12,-6,131,-57,10470.988,7246.709,-9262.253,4526.556,371,-2,60
15.537933,-79,2063,-23,-67,107,-15,10453.557,7258.441,-9269.918,4532.354
15.557891,-73,1989,-13,-102,85,23,10435.434,7264.137,-9281.918,4540.424
15.577911,-54,1926,-54,-86,66,66,10421.372,7261.464,-9292.553,4555.219
15.597900,-51,1944,-46,-21,52,108,10414.379,7249.824,-9297.357,4579.884
15.617889,-46,2073,-101,68,46,146,10414.339,7229.662,-9295.579,4615.320,368,-10,54
15.637909,-4,2173,-59,154,45,185,10418.226,7203.151,-9288.983,4661.051
15.657898,8,2225,-54,205,57,223,10420.837,7174.011,-9282.154,4713.467
15.677917,29,2161,-76,203,77,251,10418.363,7146.917,-9277.466,4768.998
15.697967,49,2056,-95,178,106,262,10411.980,7123.652,-9273.041,4826.012
15.717895,65,2032,-113,165,135,258,10403.008,7106.095,-9266.614,4883.249,364,5,56
15.737915,82,2035,-113,154,165,234,10391.086,7095.917,-9258.572,4938.377
15.757904,110,2120,-84,124,194,198,10373.499,7094.037,-9252.865,4988.495,364,5,56,33902
15.777893,111,2212,-51,55,218,172,10346.507,7101.511,-9254.678,5030.376
15.797912,124,2277,-18,-53,231,148,10307.003,7118.553,-9268.976,5060.968
15.817901,139,2239,-13,-187,234,130,10256.998,7143.460,-9294.693,5080.265,371,5,49
15.837890,132,2141,-12,-287,224,108,10204.143,7171.787,-9325.368,5090.567
15.857879,162,2012,-6,-314,200,78,10157.310,7199.518,-9352.393,5095.505
15.877899,133,1897,20,-272,169,36,10123.027,7223.853,-9369.771,5097.359
15.897888,87,1813,7,-180,133,-11,10104.088,7244.601,-9374.545,5096.713
15.917877,60,1855,29,-86,96,-66,10099.504,7262.756,-9366.588,5094.590,387,-15,34
15.937896,28,1862,34,2,75,-118,10105.748,7280.658,-9348.226,5090.381
15.957885,-28,1973,0,58,60,-170,10119.104,7300.809,-9322.014,5083.050
15.977874,-85,2120,-26,88,57,-221,10137.109,7326.605,-9288.782,5070.880
15.997894,-105,2234,-5,97,68,-284,10156.882,7360.491,-9249.963,5053.171
16.017883,-133,2184,31,88,88,-347,10176.106,7404.002,-9207.113,5029.128,391,-13,34
16.037902,-163,2147,-10,58,110,-412,10193.488,7457.813,-9162.007,4996.687
16.057891,-203,2104,9,23,125,-474,10210.658,7519.523,-9113.824,4957.104
16.077880,-259,2139,-32,6,134,-530,10228.878,7586.402,-9062.442,4911.633
16.097900,-296,2108,-78,0,134,-575,10249.888,7657.026,-9006.560,4860.767
16.117889,-343,2162,-68,9,130,-620,10275.848,7728.947,-8944.734,4805.985,394,-13,43
16.137878,-361,2158,-73,44,117,-661,10309.171,7799.806,-8874.776,4749.505
16.157867,-399,2148,-93,95,99,-694,10349.186,7867.326,-8798.606,4692.494
16.177887,-403,2150,-46,136,75,-704,10392.588,7928.962,-8721.882,4635.719
16.197876,-375,2100,-41,146,44,-675,10433.404,7981.611,-8653.206,4582.077
16.217895,-361,2068,-62,121,16,-588,10465.129,8022.487,-8601.704,4535.073,383,-4,49
16.237884,-371,2032,13,52,-8,-450,10483.516,8050.944,-8574.116,4494.237
16.257873,-380,1938,40,-50,-37,-303,10485.894,8069.836,-8572.686,4457.381,383,-4,49,33865
16.277862,-414,1919,30,-169,-52,-166,10473.685,8082.217,-8593.881,4422.706
16.297882,-412,1872,43,-268,-61,-65,10453.238,8089.453,-8627.729,4391.842
16.317871,-384,1867,16,-296,-62,2,10429.630,8092.770,-8665.892,4366.651,359,-2,49
16.337890,-372,1907,-1,-284,-54,44,10407.207,8093.134,-8701.646,4348.334
16.357879,-382,1961,46,-234,-42,62,10389.826,8090.240,-8730.100,4338.239
16.377868,-408,2047,36,-156,-31,66,10378.481,8086.346,-8749.166,4334.243
16.397857,-433,2125,77,-89,-16,47,10372.542,8083.597,-8758.798,4334.133
16.417877,-426,2193,32,-33,-4,19,10371.560,8083.064,-8759.170,4336.724,338,5,49
16.437896,-427,2143,21,18,15,-13,10374.003,8084.349,-8752.059,4342.839
16.457977,-416,2034,10,56,35,-27,10378.793,8087.132,-8739.067,4352.367
16.477874,-409,1885,-28,91,51,-36,10386.655,8089.040,-8720.894,4366.492
16.497863,-376,1756,-136,143,56,-27,10400.976,8084.882,-8696.180,4389.335
16.517883,-383,1763,-209,234,50,4,10424.501,8069.900,-8663.458,4425.653,338,5,56
16.537872,-388,1903,-261,351,37,60,10457.221,8040.995,-8623.464,4478.865
16.557861,-374,2064,-259,469,25,132,10494.601,8000.323,-8580.382,4546.499
16.577850,-318,2265,-306,528,19,200,10531.236,7951.956,-8540.524,4621.076
16.597869,-289,2395,-252,521,5,249,10561.163,7899.692,-8512.202,4694.098
16.617889,-263,2456,-245,426,-18,293,10577.548,7848.054,-8504.420,4757.501,330,6,59
16.637847,-260,2419,-211,259,-39,328,10577.024,7801.866,-8520.569,4805.494
16.657867,-231,2316,-222,65,-58,340,10561.338,7763.266,-8557.051,4837.576
16.677856,-231,2126,-168,-95,-68,333,10535.853,7732.530,-8605.123,4857.063
16.697876,-231,1957,-188,-189,-66,307,10507.231,7707.977,-8655.459,4868.639
16.717865,-199,1867,-144,-210,-61,271,10481.668,7686.496,-8700.251,4877.857,325,9,57
16.737854,-198,1890,-86,-172,-54,232,10461.734,7668.777,-8734.771,4886.838
16.757873,-218,2030,-90,-124,-35,181,10445.563,7656.441,-8760.137,4895.360,325,9,57,33911
16.777862,-214,2076,-71,-98,-8,130,10430.232,7651.909,-8778.958,4901.417
16.797851,-182,2005,-23,-99,21,78,10413.154,7655.833,-8794.166,4904.335
16.817871,-163,1945,-36,-122,54,41,10392.013,7666.112,-8809.862,4904.951,343,-2,35
16.837860,-130,1848,-13,-153,76,31,10366.668,7678.609,-8829.002,4904.619
16.857849,-98,1773,33,-187,78,44,10336.772,7689.491,-8854.808,4904.149
16.877868,-93,1716,75,-224,69,84,10300.324,7697.034,-8890.977,4903.566
16.897857,-61,1832,67,-281,54,139,10257.313,7700.052,-8938.371,4902.824
16.917907,-57,2009,90,-331,33,192,10209.215,7698.721,-8994.977,4901.779,356,-3,36
16.937835,-42,2216,199,-369,15,229,10156.346,7694.705,-9059.619,4898.865
16.957855,-40,2311,296,-417,-1,256,10098.300,7688.946,-9132.726,4892.157
16.977844,-29,2354,311,-472,-22,271,10034.992,7684.228,-9213.367,4878.614
16.997833,-54,2341,345,-531,-38,264,9970.883,7682.858,-9294.479,4858.319
17.017852,-62,2184,364,-538,-42,218,9912.996,7685.453,-9366.702,4833.905,359,-11,37
17.037872,-50,2005,305,-480,-38,154,9865.866,7691.422,-9422.997,4811.369
17.057830,-19,1865,275,-371,-17,95,9833.041,7697.208,-9459.281,4798.094
17.077850,-33,1839,213,-215,8,60,9814.973,7698.473,-9475.618,4800.824
17.097869,-2,1915,213,-51,44,66,9807.458,7695.096,-9476.450,4819.915
17.117858,14,1949,186,68,80,78,9804.821,7689.303,-9468.818,4849.436,370,-13,48
17.137847,21,1950,183,119,103,89,9802.905,7682.952,-9458.495,4883.400
17.157867,44,1972,154,132,114,99,9801.205,7674.246,-9448.744,4919.246
17.177856,74,1963,117,141,103,117,9800.031,7658.714,-9441.725,4959.106
17.197845,154,1877,64,156,84,172,9799.161,7632.185,-9439.824,5005.132
17.217865,198,1862,4,176,51,247,9798.918,7591.190,-9444.392,5059.045,384,-22,64
17.237854,237,1868,-53,205,13,344,9801.199,7533.177,-9454.567,5121.944
17.257843,218,2066,-74,250,-32,441,9806.739,7459.323,-9469.326,5191.691,384,-22,64,33906
17.277832,231,2282,-90,288,-82,511,9815.132,7373.831,-9487.651,5264.002
17.297821,187,2515,-90,294,-120,550,9820.294,7285.669,-9510.491,5335.431
17.317840,218,2714,-58,250,-116,566,9815.043,7204.334,-9539.417,5403.467,379,-24,59
17.337829,240,2642,7,158,-76,558,9795.244,7136.113,-9575.642,5465.491
17.357818,304,2310,-4,38,-27,532,9762.463,7082.438,-9617.678,5519.879
17.377838,321,1896,-76,-50,8,496,9726.367,7036.341,-9658.002,5571.905
17.397827,306,1553,-130,-37,37,466,9697.528,6993.282,-9685.781,5627.879
17.417846,260,1379,-186,61,72,413,9684.195,6956.743,-9691.164,5686.551,398,-27,61
17.437835,179,1435,-149,190,110,291,9688.762,6935.528,-9669.937,5740.564
17.457916,150,1559,-153,271,163,104,9702.042,6941.673,-9629.147,5779.145
17.477813,55,1751,-112,229,225,-111,9713.099,6983.116,-9578.824,5794.251
17.497833,6,1789,-56,99,289,-322,9716.331,7060.070,-9525.449,5783.560
17.517822,-5,1704,-65,-57,347,-506,9709.209,7166.199,-9472.614,5751.684,421,-40,51
17.537811,-28,1568,-140,-189,396,-628,9698.986,7287.796,-9416.338,5708.390
17.557830,-96,1528,-261,-194,412,-704,9701.934,7407.915,-9344.917,5665.970
17.577819,-188,1816,-249,-40,396,-751,9729.956,7516.170,-9248.990,5632.650
17.597808,-246,2166,-133,181,367,-789,9774.355,7613.642,-9137.355,5607.014
17.617828,-245,2407,2,262,349,-782,9809.886,7709.891,-9035.800,5577.943,435,-38,46
17.637817,-226,2633,110,114,337,-731,9816.733,7809.664,-8968.502,5535.549
17.657806,-184,2735,175,-176,310,-624,9789.357,7908.554,-8946.754,5478.529
17.677826,-170,2813,246,-457,250,-469,9738.512,7995.346,-8964.885,5413.140
17.697815,-194,3007,336,-622,160,-310,9676.758,8063.666,-9010.861,5345.789
17.717804,-164,2853,382,-679,71,-171,9618.244,8110.866,-9068.882,5281.480,434,-34,48
17.737823,-54,2128,393,-621,-27,-85,9574.398,8134.353,-9126.864,5224.842
17.757812,164,1328,338,-473,-125,-3,9549.508,8122.202,-9183.773,5189.457,434,-34,48,33902
17.777801,299,1165,274,-264,-237,192,9541.156,8057.945,-9249.335,5188.554
17.797821,195,1340,407,-45,-367,509,9541.340,7942.394,-9331.110,5219.868
17.817840,38,1561,342,48,-476,769,9536.335,7811.159,-9427.909,5253.006,398,-29,34
17.837829,-25,1525,317,-43,-501,778,9528.396,7704.294,-9520.028,5259.089
17.857818,6,1526,330,-155,-477,510,9526.162,7637.071,-9591.786,5230.723
17.877807,105,1580,379,-214,-423,214,9521.196,7597.779,-9650.868,5188.136
17.897827,82,1632,515,-280,-339,126,9497.225,7571.680,-9716.698,5147.191
17.917816,97,1535,623,-404,-254,178,9447.247,7557.948,-9796.822,5107.314,387,-29,57
17.937805,102,1342,616,-562,-171,207,9379.042,7557.900,-9884.494,5063.982
17.957794,63,1270,594,-640,-110,181,9312.493,7567.443,-9961.162,5022.147
17.977813,9,1384,538,-546,-60,110,9264.370,7580.515,-10010.108,4994.036
17.997802,-55,1775,467,-322,10,39,9237.735,7597.018,-10023.797,4990.840
18.017822,-119,2326,382,-72,138,-15,9228.643,7621.853,-9999.715,5018.030,402,-38,56
18.037811,-181,2611,313,167,302,-87,9236.789,7660.552,-9935.445,5071.491
18.057830,-189,2756,210,383,458,-209,9258.846,7718.650,-9833.989,5140.457
18.077819,-188,2836,58,532,596,-356,9294.437,7793.534,-9699.062,5218.994
18.097808,-237,2427,41,686,692,-489,9345.276,7876.713,-9534.375,5306.065
18.117797,-275,2249,49,820,751,-586,9402.583,7968.365,-9350.209,5394.960,413,-53,80
18.137878,-244,2054,133,860,797,-669,9453.179,8073.600,-9161.542,5473.204
18.157806,-192,1966,31,738,825,-734,9480.533,8192.406,-8990.965,5531.904
18.177795,-159,2074,-33,495,828,-712,9485.655,8309.382,-8847.740,5579.376
18.197815,-168,2323,-86,354,774,-588,9484.616,8401.420,-8726.333,5634.248
18.217804,-212,2541,-126,395,677,-392,9487.131,8457.719,-8621.238,5707.103,413,-39,87
18.237823,-186,2656,-235,472,572,-188,9495.792,8481.603,-8528.095,5796.497
18.257782,-166,2671,-324,582,473,-30,9518.440,8470.276,-8438.775,5905.611,413,-39,87,33880
18.277801,-167,2817,-400,761,362,123,9552.897,8421.799,-8353.714,6038.737
18.297790,-72,3119,-349,895,289,325,9577.203,8345.379,-8285.104,6198.734
18.317779,81,2763,-240,888,293,583,9561.744,8261.788,-8254.232,6373.302,403,-36,54
18.337799,223,2249,-367,617,372,836,9495.694,8190.368,-8263.905,6549.272
18.357788,182,1974,-354,339,477,998,9399.936,8131.954,-8289.538,6725.437
18.377777,164,1688,-265,231,566,1011,9294.975,8095.263,-8304.476,6895.016
18.397796,183,1715,-333,176,685,872,9183.244,8093.268,-8298.128,7052.909
18.417785,290,1650,-270,117,847,679,9071.385,8122.025,-8266.146,7200.620,378,-28,26
18.437805,372,1641,-219,108,952,497,8958.401,8169.085,-8221.691,7338.414
18.457885,317,1654,-159,48,993,410,8842.639,8230.435,-8175.536,7460.812
18.477783,271,1578,-163,-39,992,307,8728.486,8310.061,-8124.600,7561.925
18.497772,223,1617,-173,-122,1002,154,8620.810,8409.654,-8060.494,7643.508
18.517791,195,1694,-184,-151,1026,-14,8524.487,8521.812,-7979.588,7711.903,396,-43,-24
18.537780,143,1690,-186,-125,1029,-161,8441.210,8642.095,-7882.853,7768.926
18.557769,29,1925,-211,-100,1024,-293,8371.534,8769.143,-7770.372,7815.132
18.577789,9,2127,-201,-57,1012,-429,8319.565,8897.549,-7640.264,7853.677
18.597808,-71,1924,-113,22,983,-545,8279.806,9025.220,-7502.786,7882.502
18.617767,-199,2102,-158,8,932,-605,8244.414,9156.242,-7367.753,7895.853,415,-55,-40
18.637786,-352,2362,-122,-49,876,-665,8217.420,9291.076,-7231.567,7892.386
18.657775,-357,2616,-159,-81,821,-755,8197.162,9427.597,-7097.366,7873.359
18.677764,-340,2800,-140,-133,754,-785,8179.054,9554.292,-6978.055,7846.066
18.697784,-339,2949,-117,-166,634,-702,8160.483,9658.495,-6889.828,7815.734
18.717773,-329,2978,-51,-210,464,-523,8139.974,9737.756,-6840.119,7782.359,416,-61,-59
18.737762,-313,2798,28,-276,286,-347,8119.304,9798.995,-6827.753,7737.816
18.757782,-325,2461,58,-390,107,-239,8102.951,9852.947,-6844.889,7671.020,416,-61,-59,33890
18.777771,-338,1811,90,-510,-57,-236,8103.360,9903.407,-6873.526,7579.455
18.797790,-372,1689,24,-540,-210,-328,8128.264,9946.375,-6899.002,7472.626
18.817779,-276,1753,4,-459,-336,-410,8176.211,9966.581,-6921.481,7371.930,389,-65,-53
18.837768,-150,1709,92,-300,-455,-342,8230.563,9952.272,-6963.213,7291.037
18.857788,-50,1769,79,-223,-585,-102,8278.599,9902.590,-7045.297,7225.145
18.877777,14,1730,92,-236,-743,187,8320.776,9820.359,-7170.823,7165.191
18.897766,101,1875,108,-284,-913,421,8359.804,9712.881,-7332.472,7102.386
18.917755,173,1861,155,-349,-1070,576,8398.943,9587.525,-7520.951,7029.071,358,-34,-53
18.937774,204,1662,188,-423,-1206,654,8433.963,9453.273,-7729.164,6942.575
18.957763,140,1800,79,-515,-1272,703,8466.953,9317.124,-7939.515,6848.461
18.977752,117,1590,139,-491,-1277,655,8514.230,9182.931,-8121.673,6756.886
18.997772,145,1636,38,-334,-1218,503,8572.643,9057.464,-8269.874,6672.087
19.017791,67,1847,32,-212,-1120,382,8642.050,8939.392,-8384.997,6597.690,344,-29,-33
19.037750,38,1952,-120,-48,-1027,258,8723.802,8826.824,-8466.867,6536.821
19.057769,32,2344,-170,103,-921,168,8812.374,8718.143,-8520.192,6494.444
19.077758,-7,2640,-78,257,-811,124,8901.634,8611.408,-8553.691,6471.040
19.097747,-51,3099,-115,331,-706,132,8976.785,8514.930,-8582.240,6457.080
19.117767,-60,3137,-122,267,-592,141,9034.297,8437.491,-8609.798,6441.818,363,-41,-8
19.137756,-11,2861,-59,149,-481,99,9072.586,8382.906,-8639.476,6419.498
19.157745,40,2055,-71,10,-386,64,9094.501,8346.797,-8672.755,6390.601
19.177764,43,1763,-161,-92,-320,42,9110.114,8319.025,-8705.926,6359.397
19.197754,-11,1664,-122,-85,-295,26,9134.700,8289.359,-8727.457,6333.300
19.217773,-30,1803,-3,19,-290,-13,9164.406,8262.713,-8740.267,6307.487,392,-45,12
19.237762,-11,2104,91,4,-267,-55,9182.656,8249.294,-8759.685,6271.468
19.257751,-10,2067,106,-157,-238,-78,9180.477,8252.872,-8794.357,6221.225,392,-45,12,33927
19.277771,-25,2018,108,-342,-200,-85,9165.687,8270.029,-8836.698,6159.949
19.297760,-45,2109,138,-420,-176,-125,9153.955,8291.818,-8871.921,6097.155
19.317749,-80,2063,220,-344,-165,-174,9153.639,8313.933,-8891.993,6037.987,403,-29,15
19.337738,-68,1928,301,-265,-149,-233,9157.883,8339.210,-8903.277,5979.786
19.357818,-76,1625,331,-238,-137,-261,9165.438,8364.089,-8911.279,5921.258
19.377746,-44,1387,338,-220,-152,-271,9174.270,8388.256,-8920.941,5858.512
19.397888,-96,1534,270,-239,-175,-280,9185.488,8409.950,-8931.079,5794.031
19.417785,-114,1720,253,-215,-197,-272,9199.652,8426.397,-8940.636,5732.598,404,-52,28
19.437744,-119,2080,263,-194,-204,-252,9214.499,8439.512,-8949.445,5675.430
19.457824,-102,2312,208,-161,-198,-232,9233.013,8445.790,-8953.608,5629.247
19.477752,16,2343,133,-68,-184,-188,9258.934,8438.144,-8950.706,5602.693
19.497741,89,2180,17,81,-180,-108,9297.892,8406.582,-8938.763,5604.688
19.517730,61,2313,-1,311,-197,18,9357.217,8344.946,-8914.439,5636.716
19.537750,37,2184,23,550,-247,114,9430.045,8266.220,-8883.061,5680.715,391,-41,59
19.557739,36,2243,34,604,-285,134,9500.126,8188.590,-8858.561,5714.535
19.577758,64,2285,-33,499,-320,110,9563.909,8115.298,-8846.021,5732.095
19.597747,56,2388,30,388,-365,97,9619.165,8044.160,-8848.448,5736.161
19.617736,129,2598,69,250,-398,114,9656.672,7978.936,-8873.104,5726.142
19.637756,129,2472,29,49,-410,156,9670.468,7918.994,-8925.827,5704.088,389,-34,59
19.657745,149,2256,106,-147,-414,233,9670.167,7859.021,-8999.698,5671.378
19.677734,84,1955,129,-264,-467,260,9666.927,7799.356,-9079.668,5631.662
19.697784,52,1819,109,-271,-489,247,9671.717,7741.024,-9149.648,5590.511
19.717743,85,1634,87,-179,-477,181,9696.535,7682.498,-9196.973,5550.456
19.737732,109,1561,77,-11,-495,75,9744.589,7621.815,-9219.578,5512.324,401,-27,50
19.757751,62,2003,-10,144,-509,-8,9808.870,7556.988,-9225.360,5477.789,401,-27,50,33898
19.777740,41,2044,63,252,-520,-50,9879.286,7492.737,-9222.774,5443.755
19.797760,7,2238,-28,246,-503,-81,9939.299,7439.659,-9224.686,5403.925
19.817718,-29,2293,58,142,-459,-105,9988.638,7398.923,-9231.015,5357.876
19.837738,-59,2155,112,46,-410,-137,10017.701,7379.193,-9247.380,5302.316,402,-40,63
19.857727,-149,2094,125,-156,-320,-174,10021.102,7389.035,-9275.535,5232.546
19.877746,-149,1876,261,-355,-216,-264,10006.721,7433.489,-9303.905,5146.023
19.897735,-124,1835,171,-508,-100,-412,9977.693,7508.736,-9328.532,5047.620
19.917755,-143,1658,156,-586,5,-521,9949.481,7596.733,-9338.702,4951.923
19.937744,-182,1752,184,-491,69,-575,9933.251,7686.723,-9327.121,4866.730,394,-39,64
19.957733,-246,1776,218,-328,107,-625,9935.986,7775.312,-9289.483,4791.829
19.977722,-264,1924,175,-145,122,-692,9957.392,7863.619,-9226.856,4723.812
19.997741,-316,2090,89,15,134,-765,9998.991,7946.878,-9138.846,4667.358
20.017730,-420,2454,5,229,132,-796,10063.241,8017.457,-9026.083,4627.830
20.037719,-485,2604,62,450,123,-788,10140.793,8076.107,-8896.345,4607.742,388,-42,85
20.057739,-497,2821,73,579,145,-743,10214.162,8129.890,-8768.063,4596.986
20.077728,-520,2662,73,528,161,-679,10271.206,8183.479,-8656.004,4587.157
20.097717,-474,2376,106,411,189,-597,10305.784,8237.387,-8568.968,4576.516
20.117736,-467,2074,147,223,216,-475,10312.074,8293.358,-8514.866,4562.218
20.137725,-420,1663,166,0,232,-357,10292.909,8350.666,-8492.235,4543.101,365,-22,80
20.157745,-375,1455,94,-189,241,-246,10256.874,8404.209,-8491.978,4526.316
20.177734,-342,1470,140,-245,245,-124,10220.888,8440.653,-8498.173,4528.278
20.197723,-312,1643,143,-133,217,18,10192.857,8453.559,-8505.700,4553.184
20.217712,-217,1592,88,-11,171,157,10174.583,8440.149,-8515.735,4599.937
20.237732,-221,1972,13,128,97,309,10171.673,8395.186,-8524.370,4672.094,338,-21,74
20.257721,-228,2366,70,312,12,456,10184.869,8324.133,-8529.298,4760.648,338,-21,74,33886
20.277740,-202,2443,-12,421,-65,511,10203.149,8243.997,-8536.989,4846.393
20.297729,-268,2362,-49,384,-110,504,10220.811,8165.473,-8548.187,4921.788
20.317718,-340,2512,-51,347,-128,469,10235.688,8094.132,-8558.402,4990.479
20.337707,-402,2461,56,294,-86,418,10235.999,8045.418,-8570.480,5047.561,338,-14,65
20.357727,-395,2123,56,134,19,333,10211.116,8031.282,-8588.203,5090.168
20.377716,-334,1763,77,-70,171,238,10164.537,8049.189,-8606.084,5124.792
20.397735,-195,1652,70,-167,320,170,10104.657,8086.559,-8620.412,5160.175
20.417724,-119,1728,132,-211,410,145,10040.684,8128.577,-8632.377,5198.884
20.437713,-62,1726,97,-188,419,143,9984.074,8163.633,-8640.795,5238.841,356,-24,54
20.457794,-56,1965,84,-125,362,145,9944.391,8185.506,-8642.182,5277.756
20.477722,-51,2209,101,-12,257,112,9926.364,8192.017,-8636.373,5310.995
20.497741,-93,2310,-9,77,139,79,9926.188,8183.527,-8627.505,5338.751
20.517730,-218,2152,-45,152,30,72,9941.638,8160.829,-8614.194,5366.173
20.537719,-342,2313,-84,237,-34,78,9967.236,8131.191,-8593.770,5396.339,366,-23,56
20.557708,-372,2466,-39,301,-47,69,9995.319,8104.538,-8567.392,5426.352
20.577758,-319,2323,-7,290,-22,28,10014.645,8088.864,-8546.087,5447.659
20.597717,-244,2179,41,157,2,7,10016.444,8083.574,-8545.420,5453.248
20.617706,-141,1769,154,-55,-20,26,9998.031,8083.391,-8578.097,5435.975
20.637725,-89,1677,224,-324,-95,72,9958.263,8084.678,-8649.691,5393.446,385,-14,49
20.657714,44,1769,48,-571,-187,132,9912.071,8076.868,-8748.124,5331.116
20.677703,-5,1840,167,-670,-335,176,9875.463,8047.521,-8858.169,5261.266
20.697692,-15,2313,161,-623,-469,238,9854.791,7992.091,-8970.923,5193.029
20.717712,-139,2292,245,-488,-603,284,9855.990,7913.861,-9073.598,5131.812
20.737701,-207,2365,89,-312,-668,304,9872.659,7824.040,-9155.587,5091.724,376,-28,53
20.757690,-271,2330,44,-95,-601,337,9901.458,7730.723,-9207.885,5084.028,376,-28,53,33898
20.777710,-278,2359,118,131,-463,360,9931.297,7644.279,-9234.871,5107.536
20.797699,-198,2389,118,237,-281,373,9944.079,7576.857,-9253.155,5149.862
20.817688,-76,2283,196,177,-102,385,9934.162,7527.415,-9277.438,5197.598
20.837707,31,1964,142,40,-8,400,9901.318,7489.220,-9319.386,5240.224,381,-23,85
20.857696,156,1716,142,-131,21,439,9856.493,7452.757,-9376.103,5275.420
20.877716,274,1583,133,-199,-20,458,9816.721,7406.873,-9438.037,5303.687
20.897705,350,1560,125,-169,-116,464,9791.710,7344.260,-9499.677,5326.896
20.917694,367,1473,239,-85,-234,470,9784.662,7263.874,-9557.583,5346.451
20.937713,292,1395,72,10,-351,467,9793.758,7174.501,-9609.750,5356.956,392,-23,74
20.957702,226,1973,119,71,-418,393,9821.868,7089.073,-9644.158,5357.386
20.977691,87,2146,137,175,-430,240,9864.005,7017.488,-9657.366,5350.418
20.997680,-59,2293,106,224,-365,97,9907.897,6978.748,-9648.820,5335.387
21.017700,-148,2695,39,197,-219,-132,9951.238,6986.546,-9613.296,5308.577
21.037689,-191,2749,103,186,-25,-394,9989.547,7040.442,-9549.374,5280.720,426,-30,95
21.057678,-199,2493,1,168,209,-574,10012.348,7134.015,-9466.319,5261.459
21.077697,-243,2593,-28,134,444,-666,10025.976,7251.703,-9364.439,5256.930
21.097686,-242,2357,-8,201,606,-706,10041.248,7377.005,-9242.322,5269.539
21.117675,-251,1953,-49,308,692,-713,10058.395,7502.863,-9109.177,5290.942
21.137695,-249,1676,-44,361,721,-720,10078.221,7627.186,-8969.911,5313.344,426,-33,85
21.157684,-194,1608,-65,383,708,-731,10101.886,7746.896,-8829.198,5330.871
21.177703,-137,1563,-58,391,651,-742,10129.695,7855.318,-8694.125,5341.430
21.197692,-99,1798,-53,379,553,-709,10161.492,7945.296,-8571.959,5345.400
21.217681,-91,2056,-41,364,420,-640,10198.451,8012.047,-8465.260,5345.419
21.237670,-138,1922,32,361,284,-547,10235.350,8058.744,-8378.119,5341.985,396,-32,73
21.257690,-159,1975,20,285,178,-445,10261.342,8095.565,-8317.377,5331.357,396,-32,73,33927
21.277679,-203,2180,56,139,117,-350,10278.150,8126.310,-8278.750,5312.291
21.297668,-251,1876,127,44,57,-306,10287.367,8156.670,-8256.393,5282.635
21.317688,-273,1883,61,-91,29,-288,10282.392,8194.255,-8252.151,5240.613
21.337677,-327,2016,62,-230,34,-272,10273.856,8232.980,-8253.456,5194.402,385,-4,63
21.357666,-324,2205,1,-219,21,-276,10272.450,8266.895,-8247.462,5152.669
21.377685,-385,2473,42,-124,11,-273,10282.456,8290.892,-8227.686,5125.702
21.397674,-358,2500,-83,33,15,-251,10299.227,8304.544,-8200.416,5113.617
21.417663,-322,2444,-116,110,17,-182,10319.459,8304.166,-8170.092,5121.973
21.437683,-320,2321,-188,238,16,-73,10347.203,8284.329,-8133.162,5156.781,362,-9,49
21.457702,-341,2215,-190,402,15,47,10380.904,8250.318,-8088.822,5213.011
21.477691,-322,2215,-139,498,25,110,10413.965,8214.690,-8042.593,5274.497
21.497680,-262,2156,-143,479,42,113,10435.436,8185.572,-8007.776,5330.012
21.517669,-237,2020,-97,334,62,137,10436.978,8165.455,-7995.978,5375.369
21.537658,-218,1799,-47,134,78,183,10417.302,8156.826,-8009.423,5406.531,338,-2,46
21.557678,-215,1637,36,-83,91,194,10377.996,8165.547,-8044.849,5416.352
21.577667,-214,1711,21,-312,111,152,10324.311,8192.745,-8096.011,5401.628
21.597656,-216,1603,101,-487,111,69,10267.541,8232.757,-8150.846,5366.419
21.617675,-241,1873,20,-551,94,-26,10214.793,8278.554,-8200.088,5321.421
21.637664,-304,2028,78,-513,89,-83,10178.031,8317.005,-8231.204,5283.731,365,-5,29
21.657653,-342,2256,-16,-319,65,-115,10163.511,8343.373,-8237.929,5259.576
21.677673,-418,2482,-63,-102,47,-139,10170.377,8355.964,-8219.740,5254.769
21.697662,-434,2419,-33,123,42,-132,10192.196,8356.283,-8184.199,5267.448
21.717681,-434,2263,-47,260,41,-106,10215.586,8352.401,-8146.060,5287.375
21.737670,-428,2116,-19,255,46,-77,10235.509,8347.082,-8113.445,5307.355,358,-8,45
21.757660,-358,2055,-101,225,33,-50,10251.521,8339.844,-8088.827,5325.374,358,-8,45,33902
21.777649,-332,1942,-90,181,20,-11,10263.141,8326.135,-8073.904,5347.046
21.797729,-265,1805,-102,166,-2,73,10270.202,8300.789,-8069.257,5379.810
21.817657,-204,1719,-167,180,-13,196,10272.175,8260.951,-8074.419,5429.392
21.837646,-183,1900,-170,210,-19,343,10271.000,8206.782,-8086.151,5495.896,342,-10,54
21.857666,-115,2108,-106,259,-26,447,10268.374,8143.659,-8101.207,5572.000
21.877655,-55,2122,-86,268,-36,496,10260.431,8079.042,-8125.542,5644.788
21.897674,-27,2240,-56,178,-56,512,10242.746,8018.376,-8165.371,5705.606
21.917663,-2,2092,-53,48,-83,513,10216.887,7963.959,-8217.999,5752.433
21.937652,9,1980,-138,-64,-99,484,10186.439,7917.794,-8274.874,5788.512,350,-16,30
21.957641,23,2333,-191,-106,-84,445,10161.561,7875.095,-8320.602,5824.821
21.977661,34,2316,-228,-6,-63,378,10153.173,7832.500,-8341.887,5866.291
21.997650,82,2434,-158,147,-42,290,10155.531,7792.783,-8344.450,5911.286
22.017639,45,2605,-162,210,-9,233,10157.892,7760.154,-8342.804,5952.334
22.037658,35,2566,-133,165,7,185,10153.037,7739.553,-8347.794,5980.378,378,-21,37
22.057647,60,2359,-93,29,15,137,10136.457,7732.354,-8366.336,5991.894
22.077636,70,2280,-53,-131,12,117,10105.711,7734.998,-8402.755,5989.453
22.097656,85,2116,16,-293,7,132,10058.619,7744.720,-8458.606,5977.532
22.117645,113,2111,6,-444,10,168,10000.258,7758.132,-8528.387,5958.882
22.137634,166,1883,91,-510,-5,190,9940.628,7766.612,-8603.901,5939.020,396,-27,32
22.157653,175,1595,128,-515,-41,225,9880.103,7768.142,-8686.116,5918.307
22.177642,178,1414,127,-531,-80,264,9821.988,7762.309,-8771.794,5896.284
22.197631,115,1231,125,-497,-128,278,9774.838,7748.487,-8850.688,5874.882
22.217651,14,1178,117,-408,-161,251,9740.581,7732.781,-8915.439,5854.534
22.237640,-59,1308,73,-315,-152,185,9719.581,7723.703,-8958.332,5835.912,401,-27,27
22.257629,-63,1491,-34,-196,-98,68,9714.308,7725.095,-8971.800,5822.143,401,-27,27,33902
22.277649,-71,2083,-93,-48,-23,-59,9725.646,7734.052,-8954.250,5818.341
22.297638,-55,2353,-104,128,50,-155,9752.068,7744.665,-8910.827,5826.657
22.317657,-16,2433,-160,264,97,-205,9781.814,7755.614,-8855.986,5845.811
22.337646,-65,2426,-136,318,148,-187,9809.985,7765.847,-8796.435,5874.858,417,-34,54
22.357635,-156,2680,-148,347,179,-163,9838.651,7778.656,-8733.597,5903.657
22.377655,-221,2655,-96,340,185,-213,9868.428,7804.371,-8667.213,5917.834
22.397644,-254,2684,-100,255,190,-333,9890.840,7850.866,-8606.186,5907.975
22.417633,-247,2478,-38,88,196,-440,9903.691,7912.930,-8555.553,5877.105
22.437622,-228,2395,-53,-55,188,-482,9905.127,7981.374,-8519.449,5834.426,404,-35,56
22.457702,-216,2417,-30,-177,173,-453,9897.213,8047.957,-8496.962,5789.009
22.477630,-182,2197,25,-224,158,-394,9884.989,8106.772,-8483.078,5748.048
22.497650,-191,2161,44,-225,135,-313,9870.968,8154.283,-8475.968,5715.335
22.517639,-194,2216,78,-193,109,-235,9860.173,8190.275,-8471.148,5689.593
22.537628,-142,2079,60,-148,76,-185,9849.350,8217.965,-8470.198,5669.791,398,-32,45
22.557617,-71,1700,85,-143,65,-119,9833.997,8236.163,-8477.475,5659.147
22.577636,-19,1560,56,-133,54,-14,9815.666,8239.900,-8493.086,5662.125
22.597625,-29,1268,39,-85,33,108,9799.364,8229.040,-8510.361,5680.190
22.617645,-29,1119,-44,-7,24,187,9788.192,8210.362,-8522.542,5708.149
22.637634,-34,1272,-15,71,27,196,9787.867,8189.053,-8521.817,5740.306,387,-24,59
22.657623,-63,1461,1,167,23,132,9797.833,8171.700,-8507.610,5769.038
22.677612,-39,1933,98,194,29,48,9806.019,8164.417,-8491.662,5788.901
22.697631,-22,2167,116,112,50,-7,9801.537,8171.639,-8486.082,5794.482
22.717620,22,2142,132,-62,74,-36,9779.411,8192.178,-8496.747,5787.231
22.737609,2,2303,55,-216,94,-25,9746.293,8215.761,-8517.818,5778.689,388,-23,60
22.757629,-18,2304,1,-236,111,22,9716.741,8232.080,-8533.092,5782.695,388,-23,60,33892
22.777618,-46,2244,-30,-106,127,53,9703.034,8237.978,-8527.204,5805.951
22.797638,-134,2233,-129,119,152,39,9713.285,8236.300,-8487.599,5849.065
22.817627,-127,2252,-243,385,189,-32,9747.377,8229.196,-8413.403,5909.234
22.837616,-151,2410,-260,607,224,-98,9796.294,8218.798,-8315.402,5981.094,395,-28,49
22.857605,-134,2443,-266,728,247,-140,9846.744,8211.943,-8210.550,6052.101
22.877624,-148,2596,-268,681,266,-177,9887.392,8215.915,-8114.534,6109.663
22.897613,-124,2629,-222,531,268,-204,9912.202,8232.130,-8038.039,6148.628
22.917602,-138,2767,-161,313,258,-201,9911.918,8264.037,-7992.524,6165.595
22.937622,-161,2669,-45,15,260,-171,9884.183,8313.635,-7981.036,6158.320,391,-22,45
22.957611,-153,2303,40,-275,257,-160,9834.200,8381.765,-7996.660,6125.633
22.977600,-145,1979,121,-528,255,-180,9767.477,8465.866,-8032.931,6069.016
22.997619,-132,1506,223,-718,237,-211,9696.412,8556.437,-8078.837,5994.564
23.017669,-52,1051,245,-779,193,-251,9631.084,8643.278,-8125.096,5912.208
23.037597,-89,996,249,-740,133,-258,9579.217,8713.017,-8165.590,5837.850,390,-28,30
23.057617,-85,1024,195,-575,67,-207,9549.164,8755.600,-8193.275,5784.341
23.077606,-87,1404,65,-327,-4,-139,9544.113,8770.072,-8203.280,5756.507
23.097595,-134,2120,-48,-57,-57,-87,9568.538,8755.521,-8190.446,5756.383
23.117614,-163,2701,-26,252,-122,-52,9620.304,8715.876,-8156.023,5779.096
23.137634,-137,2921,-13,470,-173,-35,9678.957,8667.049,-8117.958,5808.118,370,-20,43
23.157592,-134,2589,-36,449,-187,-18,9725.683,8622.087,-8096.454,5826.968
23.177612,-156,2459,-38,272,-203,17,9755.429,8583.818,-8099.643,5829.313
23.197601,-125,2113,79,78,-226,55,9765.286,8555.066,-8127.998,5815.592
23.217590,-80,1800,102,-144,-219,95,9749.024,8539.252,-8184.011,5787.495
23.237609,-74,1513,56,-372,-190,154,9711.304,8531.218,-8262.198,5751.557,365,-24,52
23.257598,-34,1618,10,-505,-170,218,9667.853,8521.183,-8343.642,5721.986,365,-24,52,33896
23.277587,-21,1988,31,-436,-145,254,9633.579,8503.359,-8409.312,5710.162
23.297607,-29,2454,112,-257,-109,257,9611.611,8480.345,-8452.711,5717.323
23.317596,1,2698,164,-96,-60,225,9598.702,8461.597,-8476.178,5732.027
23.337616,23,3032,68,-14,-14,135,9594.991,8450.498,-8482.181,5745.717,377,-29,64
23.357605,-29,2961,113,62,5,39,9604.458,8440.883,-8471.268,5760.116
23.377594,-100,2595,72,148,0,-31,9622.634,8434.718,-8448.695,5771.951
23.397613,-129,2222,58,176,11,-98,9644.546,8436.659,-8417.156,5778.618
23.417602,-148,1676,32,185,33,-166,9667.140,8445.853,-8380.693,5780.432
23.437591,-151,1362,11,159,51,-197,9682.673,8460.130,-8348.172,5780.613,392,-28,60
23.457672,-108,1223,41,101,77,-165,9688.954,8474.757,-8325.416,5781.482
23.477600,-93,1096,43,44,79,-105,9685.628,8486.506,-8315.486,5784.111
23.497589,-66,1535,11,-19,74,-27,9672.370,8493.457,-8319.635,5790.124
23.517608,-88,2114,16,-62,66,59,9656.951,8492.564,-8330.882,5800.990
23.537597,-98,2614,114,-45,41,99,9641.445,8487.122,-8345.419,5813.837,379,-27,54
23.557617,-65,2978,218,-66,34,117,9618.930,8484.658,-8367.708,5822.683
23.577606,-77,2804,243,-151,37,124,9584.194,8490.756,-8403.550,5819.455
23.597595,-86,2437,256,-303,38,115,9538.077,8508.362,-8451.565,5799.942
23.617584,-114,1968,261,-424,33,80,9492.746,8531.970,-8499.242,5769.883
23.637573,-114,1616,212,-416,17,19,9458.927,8556.302,-8534.809,5736.799,379,-29,57
23.657592,-128,1548,137,-324,3,-44,9441.584,8575.122,-8552.201,5711.310
23.677581,-107,1634,64,-153,-1,-74,9442.647,8581.742,-8549.097,5704.252
23.697601,-74,2030,87,58,7,-53,9458.477,8571.612,-8528.722,5723.722
23.717590,-59,2180,136,262,23,18,9479.489,8546.898,-8501.391,5766.420
23.737579,-21,2316,58,350,45,106,9493.816,8515.406,-8478.782,5822.455,387,-20,73
23.757598,24,2522,74,338,72,194,9500.934,8477.885,-8464.268,5886.366,387,-20,73,33902
23.777587,60,2260,60,330,69,265,9501.877,8435.366,-8458.165,5954.310
23.797577,98,1962,62,291,68,329,9492.404,8392.433,-8463.883,6021.582
23.817596,46,1851,45,213,70,381,9478.417,8348.780,-8476.415,6086.321
23.837585,73,1566,82,190,55,387,9465.774,8309.119,-8488.389,6143.315,389,-32,66
23.857574,52,1458,16,156,45,323,9454.722,8279.511,-8497.949,6186.940
23.877594,82,1783,-36,110,40,232,9450.886,8257.807,-8499.356,6219.788
23.897583,75,2106,-23,135,29,134,9454.601,8239.927,-8491.658,6248.303
23.917572,80,2743,30,156,37,82,9456.497,8227.952,-8481.579,6274.846
23.937561,69,2927,92,117,66,56,9447.964,8228.375,-8477.446,6292.706,392,-28,63
23.957580,78,2691,-4,-25,99,26,9425.951,8245.200,-8480.892,6299.048
23.977569,78,2354,-103,-123,144,-9,9408.463,8265.360,-8474.407,6307.496
23.997558,-10,2171,-102,7,161,-56,9416.329,8278.165,-8436.857,6329.265
24.017578,-50,1831,-48,271,167,-154,9450.296,8289.001,-8367.555,6356.400
24.037567,-48,1651,-48,413,176,-281,9493.510,8308.769,-8284.033,6375.566,408,-36,45
24.057586,-60,1503,-23,395,181,-378,9535.874,8335.776,-8203.197,6381.609
24.077575,-79,1641,-12,308,152,-404,9568.703,8366.603,-8138.934,6374.407
24.097564,-123,1699,31,152,119,-368,9583.141,8403.583,-8101.367,6351.888
24.117553,-134,1812,10,-71,94,-313,9572.945,8450.780,-8093.988,6313.938
24.137573,-160,2239,-61,-303,99,-247,9545.269,8503.548,-8105.795,6269.692,414,-26,37
24.157562,-180,2287,-44,-386,111,-203,9516.091,8553.394,-8117.180,6231.395
24.177581,-165,2187,-63,-323,129,-180,9491.369,8598.756,-8117.972,6205.583
24.197570,-176,2170,-66,-209,160,-174,9480.039,8635.305,-8100.836,6194.534
24.217559,-187,2082,-22,-23,155,-197,9489.319,8661.178,-8064.101,6192.132
24.237640,-228,2218,-20,125,115,-247,9513.340,8681.824,-8017.009,6187.510,385,-26,40
24.257568,-222,2197,26,167,64,-300,9541.557,8700.499,-7973.911,6173.505,385,-26,40,33917
24.277557,-222,2252,-8,101,12,-303,9560.093,8720.043,-7949.407,6148.806
24.297577,-214,2428,-23,-40,-18,-237,9564.324,8735.806,-7948.259,6121.275
24.317566,-197,2558,4,-141,-43,-121,9555.893,8743.925,-7966.259,6099.412
24.337555,-117,2378,-22,-196,-45,5,9534.948,8744.840,-7999.277,6087.655,384,-20,50
24.357544,-52,1957,33,-224,-33,128,9504.154,8737.694,-8044.566,6086.390
24.377563,-20,1823,73,-236,-32,240,9468.298,8722.340,-8098.763,6092.420
24.397552,-27,1661,132,-231,-50,308,9431.494,8702.344,-8157.876,6099.231
24.417541,21,1485,190,-246,-70,320,9394.155,8684.442,-8220.151,6098.757
24.437561,23,1464,183,-294,-89,288,9355.589,8672.561,-8284.507,6087.857,374,-23,30
24.457641,-10,1684,225,-345,-96,244,9317.633,8666.792,-8347.211,6068.602
24.477539,3,1846,239,-364,-96,181,9282.222,8668.590,-8403.535,6042.510
24.497558,26,2147,201,-368,-77,115,9250.788,8674.378,-8450.179,6017.307
24.517547,42,2114,271,-301,-54,75,9227.830,8676.750,-8483.931,6001.626
24.537536,49,2185,189,-191,-38,71,9209.595,8674.986,-8509.466,5996.031,391,-27,52
24.557556,-12,2171,177,-121,-15,83,9202.013,8667.711,-8520.995,6001.817
24.577575,-27,2044,88,32,-11,55,9214.212,8652.987,-8510.986,6018.527
24.597534,-53,2311,101,213,-14,6,9242.180,8631.267,-8482.475,6047.015
24.617553,-68,2413,143,337,-8,-15,9272.907,8609.525,-8448.981,6077.780
24.637542,-53,2407,82,311,2,-28,9293.168,8598.780,-8422.914,6098.193,398,-36,71
24.657562,-51,2265,71,172,27,-52,9303.229,8598.403,-8405.075,6107.989
24.677551,-40,1962,62,82,34,-68,9307.387,8603.889,-8393.390,6109.998
24.697570,-62,1938,-4,17,36,-78,9310.458,8612.303,-8382.081,6108.989
24.717559,-64,1941,-58,39,37,-94,9325.386,8615.918,-8359.213,6112.456
24.737548,-76,1894,-55,167,19,-130,9357.147,8610.794,-8320.022,6124.597,395,-30,58
24.757537,-100,1905,-76,310,0,-154,9400.194,8599.375,-8269.076,6143.688,395,-30,58,33908
24.777526,-127,2018,-121,390,-6,-170,9449.683,8583.059,-8212.553,6166.358
24.797546,-145,2140,-120,440,-20,-169,9502.480,8561.318,-8155.130,6191.606
24.817535,-140,2282,0,456,-39,-148,9551.126,8538.522,-8104.812,6214.264
24.837524,-136,2484,21,369,-51,-122,9580.257,8524.956,-8077.808,6223.202,394,-24,64
24.857544,-109,2502,80,120,-45,-76,9578.860,8527.584,-8085.515,6211.734
24.877533,-80,2257,69,-190,-31,-18,9548.475,8544.700,-8126.086,6181.980
24.897552,-61,2071,54,-431,-23,38,9500.399,8568.089,-8187.629,6142.347
24.917541,-17,1808,75,-545,-28,86,9448.821,8587.882,-8254.978,6104.000
24.937530,-15,1601,53,-509,-44,123,9406.967,8596.552,-8314.358,6075.783,392,-26,46
24.957550,-31,1610,61,-361,-63,136,9384.915,8591.286,-8354.046,6062.879
24.977539,-53,1746,159,-145,-82,112,9381.922,8576.645,-8373.849,6060.922
24.997528,-40,1846,84,-13,-87,68,9384.077,8564.673,-8384.785,6059.397
25.017547,-34,1906,65,-15,-65,26,9386.381,8557.923,-8390.638,6057.262
25.037536,-46,2173,-15,2,-41,-2,9390.922,8552.448,-8389.511,6059.517,390,-28,53
25.057525,-58,2555,3,48,-10,-10,9396.206,8548.805,-8381.284,6067.846
25.077545,-71,2376,42,70,26,-29,9398.263,8554.224,-8369.619,6073.121
25.097534,-71,2110,3,18,68,-86,9395.743,8575.285,-8355.480,6066.785
25.117553,-110,2110,68,-59,94,-172,9392.724,8609.180,-8338.733,6046.462
25.137542,-107,2037,109,-111,94,-260,9387.258,8653.592,-8323.280,6012.749,400,-30,63
25.157531,-106,1866,162,-201,94,-305,9374.119,8705.741,-8315.852,5968.081
25.177551,-108,1833,160,-294,91,-308,9353.245,8758.786,-8319.743,5917.583
25.197540,-126,1977,224,-355,70,-260,9330.477,8804.300,-8330.854,5870.162
25.217529,-164,2155,226,-326,43,-199,9313.514,8837.168,-8341.670,5832.227
25.237548,-177,2315,223,-231,13,-155,9306.691,8859.384,-8345.123,5804.410,389,-36,66
25.257537,-196,2217,209,-124,-4,-148,9310.613,8873.834,-8339.056,5784.732,389,-36,66,33921
25.277526,-166,2285,196,-26,-19,-156,9324.975,8879.889,-8324.830,5772.783
25.297546,-211,2242,208,71,-43,-143,9346.753,8876.733,-8307.008,5768.090
25.317535,-218,2020,184,123,-65,-108,9368.305,8868.487,-8292.470,5766.730
25.337524,-189,1791,107,111,-74,-74,9386.817,8858.355,-8283.744,5764.739,378,-26,74
25.357544,-192,1827,59,88,-82,-46,9405.623,8843.294,-8276.942,5766.979
25.377533,-173,1872,48,127,-90,-4,9426.399,8819.890,-8269.874,5779.025
25.397522,-161,1900,9,178,-92,45,9446.017,8792.460,-8263.542,5797.820
25.417541,-146,1972,26,182,-78,80,9461.425,8764.468,-8259.628,5820.611
25.437530,-123,2015,36,173,-59,104,9472.157,8737.697,-8258.776,5844.565,381,-21,74
25.457672,-113,2111,104,142,-43,121,9477.348,8713.510,-8262.050,5867.588
25.477508,-128,2148,102,100,-34,128,9476.154,8695.100,-8271.001,5884.190
25.497528,-140,2321,125,17,-26,110,9467.438,8687.031,-8285.887,5889.195
25.517517,-167,2250,168,-85,-14,62,9452.161,8691.908,-8304.556,5880.235
25.537506,-156,2255,139,-178,5,0,9433.500,8709.268,-8321.410,5860.656,376,-7,72
25.557525,-172,2144,151,-212,27,-69,9420.373,8730.840,-8327.767,5840.610
25.577514,-193,2003,92,-132,43,-117,9418.552,8750.444,-8317.710,5828.526
25.597534,-223,2023,72,-2,58,-151,9430.251,8763.905,-8289.699,5829.292
25.617523,-236,2083,-7,156,69,-164,9454.183,8770.352,-8246.043,5842.735
25.637512,-252,1927,2,276,77,-173,9485.498,8772.337,-8192.966,5863.631,370,-22,75
25.657501,-271,2011,-17,337,80,-178,9518.740,8772.873,-8137.045,5886.782
25.677520,-300,2163,21,344,81,-172,9549.489,8772.404,-8085.178,5909.106
25.697509,-269,2097,88,299,70,-155,9568.372,8776.839,-8048.573,5921.930
25.717498,-240,2151,113,130,69,-120,9564.560,8790.672,-8040.131,5919.036
25.737518,-233,2136,161,-116,61,-54,9537.305,8811.010,-8063.273,5901.269,372,-24,82
25.757507,-177,1871,207,-327,43,23,9492.224,8832.127,-8113.007,5874.160,372,-24,82,33927
25.777526,-165,1893,206,-464,21,119,9437.954,8844.850,-8179.296,5850.485
25.797515,-108,1780,178,-458,-9,225,9388.815,8839.341,-8248.554,5840.632
25.817504,-71,1856,170,-337,-54,314,9352.311,8813.249,-8310.143,5851.314
25.837493,-53,1876,234,-145,-81,385,9333.208,8767.415,-8357.931,5882.522,372,-20,71
25.861755,-55,2215,170,35,-110,411,9325.892,8712.520,-8394.980,5922.792
25.877502,-65,2138,164,122,-116,387,9327.746,8659.722,-8419.519,5962.339
25.897491,-86,2299,30,164,-117,298,9339.728,8612.341,-8429.697,5997.724
25.917511,-79,2430,13,234,-101,212,9362.239,8566.626,-8422.985,6037.396
25.937500,-86,2272,2,327,-72,161,9384.570,8527.852,-8406.525,6080.407,379,-39,82
25.957489,-101,2309,-19,301,-6,126,9395.042,8506.553,-8390.079,6116.679
25.977508,-86,2273,58,185,68,68,9393.811,8507.102,-8375.033,6138.386
25.997497,-78,2046,181,46,119,-29,9376.659,8533.560,-8368.464,6136.845
26.017486,-74,1917,229,-189,164,-115,9335.656,8588.589,-8379.611,6107.308
26.037506,-106,1744,356,-453,202,-177,9279.486,8663.649,-8402.584,6055.108,394,-34,87
26.057495,-116,1810,310,-595,212,-238,9220.699,8747.544,-8425.549,5992.055
26.077514,-110,1928,373,-595,213,-287,9173.640,8826.101,-8434.306,5936.512
26.097503,-100,2201,378,-427,206,-306,9144.910,8889.515,-8426.284,5897.483
26.117492,-100,2504,390,-235,178,-284,9132.955,8934.848,-8406.255,5876.046
26.137481,-47,2427,363,-67,138,-241,9136.773,8959.928,-8379.734,5869.800,397,-33,69
26.157501,-9,2147,293,77,72,-186,9154.398,8962.576,-8353.882,5875.143
26.177490,56,2051,212,184,-16,-93,9181.616,8937.997,-8337.195,5893.787
26.197479,52,1902,210,274,-117,60,9213.556,8884.460,-8336.569,5925.689
26.217498,83,1792,130,309,-215,232,9241.102,8809.744,-8358.517,5963.309
26.237487,88,1673,50,257,-287,384,9261.189,8720.145,-8400.939,6004.091,381,-26,83
26.257507,88,1575,-16,217,-343,498,9280.078,8619.364,-8453.396,6046.672,381,-26,83,33902
26.277496,103,1737,-20,234,-383,549,9304.159,8512.492,-8502.233,6092.419
26.297515,98,1893,19,290,-387,529,9332.494,8410.198,-8540.582,6137.346
26.317474,80,2186,4,301,-348,451,9357.073,8324.773,-8570.181,6175.011
26.337493,33,2213,33,239,-268,355,9374.588,8263.551,-8589.403,6203.902,382,-29,82
26.357483,-38,2316,-18,171,-170,222,9385.993,8232.768,-8594.928,6219.912
26.377472,-137,2703,0,102,-52,53,9398.483,8233.807,-8577.090,6224.298
26.397491,-164,2836,12,108,59,-171,9419.725,8264.296,-8529.724,6216.866
26.417480,-222,2730,51,128,156,-396,9443.013,8321.653,-8462.482,6196.889
26.437469,-271,2703,130,86,236,-550,9464.438,8397.565,-8385.773,6165.999,398,-36,77
26.457489,-306,2590,179,42,273,-647,9481.778,8487.170,-8308.844,6120.652
26.477478,-325,2594,233,-70,279,-716,9488.693,8590.980,-8242.713,6054.162
26.497467,-265,2525,342,-247,259,-756,9481.341,8702.324,-8196.584,5968.682
26.517486,-161,2197,365,-424,224,-725,9456.245,8809.371,-8180.310,5873.019
26.537475,-95,1818,345,-579,164,-571,9414.816,8895.615,-8197.965,5784.295,391,-29,66
26.557464,-21,1391,362,-628,85,-320,9367.065,8946.524,-8245.476,5715.360
26.577484,64,998,342,-583,-24,-42,9319.428,8957.510,-8318.287,5670.343
26.597473,102,810,303,-492,-137,227,9279.512,8926.770,-8407.501,5652.678
26.617462,109,801,193,-329,-250,456,9256.894,8858.249,-8499.399,5660.123
26.637481,108,1028,195,-124,-353,585,9257.268,8761.714,-8580.826,5686.845,371,-26,79
26.657470,112,1337,123,89,-422,611,9278.425,8651.183,-8646.407,5722.144
26.677520,49,1995,133,224,-461,571,9312.864,8537.743,-8697.243,5759.418
26.697479,-7,2522,143,300,-458,499,9352.373,8433.415,-8735.103,5791.719
26.717468,-49,3021,79,286,-415,389,9386.657,8351.941,-8762.196,5813.355
26.737457,-47,3336,194,206,-316,251,9412.175,8300.424,-8777.505,5822.780,387,-32,100
26.757476,-81,3142,200,109,-207,95,9421.512,8282.629,-8789.184,5815.397,387,-32,100,33929
26.777465,-158,2486,156,-64,-88,-18,9413.288,8292.252,-8797.574,5802.300
26.797454,-308,2219,62,-117,44,-69,9406.347,8313.684,-8783.370,5804.405
26.817474,-330,2165,50,66,172,-120,9416.198,8338.571,-8730.333,5832.680
26.837463,-310,2068,68,326,291,-189,9438.278,8368.504,-8643.850,5882.714,392,-38,92
26.857452,-229,2226,58,475,404,-251,9461.852,8406.738,-8541.160,5940.044
26.877472,-179,2360,93,496,458,-299,9481.781,8448.933,-8439.080,5994.056
26.897461,-103,2485,213,433,446,-293,9490.397,8489.177,-8356.980,6038.422
26.917450,-20,2224,236,273,384,-216,9477.490,8526.572,-8314.448,6064.661
26.937469,29,1856,277,-3,287,-94,9442.432,8557.039,-8319.071,6070.094,394,-34,89
26.957458,67,1511,215,-242,156,49,9397.943,8572.644,-8359.837,6061.105
26.977447,46,1358,238,-346,17,163,9358.891,8568.506,-8418.517,6046.144
26.997467,30,1260,257,-320,-118,223,9336.432,8544.976,-8479.333,6029.158
27.017456,2,1189,210,-226,-234,225,9331.952,8507.905,-8533.699,6011.791
27.037445,-35,1215,127,-121,-295,207,9340.677,8461.881,-8576.682,6002.022,389,-32,71
27.057464,-56,1576,113,6,-292,207,9359.526,8408.278,-8604.077,6008.778
27.077453,-33,2091,65,151,-249,218,9381.603,8353.011,-8617.502,6032.149
27.097442,18,2729,139,224,-175,229,9395.945,8302.594,-8626.876,6065.937
27.117462,87,2814,147,191,-100,247,9394.371,8262.678,-8644.715,6097.400
27.137451,80,2819,75,50,-56,257,9376.994,8234.178,-8673.590,6121.646,394,-34,77
27.157440,35,2611,43,-45,-20,255,9359.421,8211.563,-8696.823,6145.906
27.177459,42,2189,-54,17,13,207,9353.239,8191.915,-8699.216,6178.066
27.197448,37,2186,-32,152,66,137,9359.797,8175.765,-8678.125,6219.054
27.217437,129,1921,-12,279,117,62,9373.112,8163.428,-8642.562,6264.563
27.237487,166,1650,-52,308,145,31,9380.413,8153.699,-8610.817,6309.857,415,-36,84
27.257446,173,1796,-1,247,152,70,9380.657,8141.139,-8590.804,6352.845,415,-36,84,33890
27.277435,175,1884,101,185,114,115,9372.957,8130.034,-8586.550,6384.105
27.297454,175,2367,165,36,75,121,9349.957,8130.066,-8603.286,6395.251
27.317474,209,2465,201,-165,49,102,9315.621,8142.469,-8637.447,6383.520
27.337432,231,2192,272,-336,7,57,9271.913,8164.582,-8685.929,6353.054,405,-39,68
27.357452,227,1834,164,-463,-15,38,9230.020,8186.063,-8736.644,6316.770
27.377441,102,1665,125,-398,-52,22,9213.702,8194.414,-8766.798,6287.921
27.397430,-29,1805,100,-140,-103,-52,9239.734,8189.236,-8757.696,6269.124
27.417450,-103,1934,120,182,-140,-204,9300.673,8182.248,-8709.977,6254.601
27.437439,-114,2035,116,363,-130,-362,9370.779,8185.765,-8645.994,6234.096,422,-34,75
27.457458,-145,2290,112,329,-99,-449,9431.494,8200.005,-8586.730,6205.670
27.477478,-102,2314,70,222,-79,-441,9474.418,8218.693,-8543.656,6174.938
27.497436,-96,2534,14,94,-48,-342,9495.549,8234.017,-8521.292,6152.929
27.517456,-43,2702,100,12,-17,-182,9499.504,8239.245,-8517.122,6145.593
27.537445,-20,2651,191,-27,-3,-21,9486.415,8237.162,-8532.000,6147.966,415,-39,80
27.557434,1,2292,241,-120,10,104,9454.071,8238.386,-8567.322,6147.027
27.577423,24,1710,243,-281,16,154,9408.236,8249.089,-8617.696,6132.567
27.597442,65,1157,230,-401,6,132,9362.758,8264.914,-8670.073,6106.980
27.617431,44,1017,223,-403,-20,82,9331.455,8277.569,-8711.358,6078.938
27.637420,15,1435,262,-280,-59,24,9322.451,8281.362,-8733.073,6056.385,402,-47,74
27.657440,9,1868,296,-101,-89,-36,9330.214,8278.291,-8737.099,6042.808
27.677429,50,2026,258,18,-76,-58,9341.385,8273.025,-8732.888,6038.847
27.697418,84,2198,104,66,-41,-40,9353.477,8261.898,-8723.546,6048.859
27.717437,87,2504,17,169,-14,19,9376.227,8234.169,-8701.077,6083.710
27.737426,56,2423,51,385,0,88,9413.427,8189.911,-8661.725,6141.879,401,-32,84
27.757415,-3,2462,54,545,14,112,9455.187,8147.173,-8612.654,6203.275,401,-32,84,33896
27.777435,-81,2523,92,543,36,50,9497.374,8120.184,-8559.916,6247.061
27.797424,-65,2157,97,434,35,-88,9530.686,8116.364,-8513.994,6264.024
27.817413,-34,2079,30,222,49,-179,9543.506,8132.942,-8487.518,6258.930
27.837463,-36,1988,23,-3,63,-183,9540.458,8158.970,-8479.183,6240.972,410,-43,73
27.857421,-2,2012,7,-135,55,-159,9527.166,8185.781,-8484.001,6219.585
27.877441,-5,2307,63,-192,50,-100,9510.997,8204.793,-8493.823,6205.860
27.897491,34,2145,158,-143,39,-33,9494.428,8214.946,-8506.952,6199.813
27.917419,71,2006,89,-138,32,24,9472.820,8222.393,-8526.213,6196.534
27.937408,104,1868,35,-151,26,61,9458.197,8220.976,-8542.112,6198.855,405,-29,66
27.957428,84,2181,75,-40,-4,75,9459.577,8203.371,-8547.898,6212.082
27.977417,51,2341,102,111,-55,97,9471.463,8175.165,-8548.294,6230.581
27.997406,51,2067,193,151,-85,99,9479.521,8149.397,-8555.415,6242.299
28.017425,53,2034,98,44,-92,95,9477.891,8131.939,-8573.718,6242.429
28.037414,43,1891,83,-53,-98,86,9475.979,8116.731,-8592.635,6239.115,408,-29,75
28.057403,48,1819,34,-35,-95,69,9477.355,8102.337,-8604.482,6239.407
28.077423,2,1895,77,19,-64,48,9485.011,8090.483,-8603.122,6245.027
28.097442,-17,1749,62,94,-26,-5,9498.012,8085.652,-8587.881,6252.498
28.117401,-31,1580,77,132,22,-72,9514.458,8091.695,-8558.871,6259.449
28.137420,-69,1739,58,161,77,-159,9536.164,8108.803,-8514.906,6264.239,414,-40,74
28.157409,-115,1754,80,201,121,-254,9561.239,8137.557,-8458.577,6265.044
28.177398,-135,1901,79,190,165,-340,9582.527,8181.462,-8398.272,6256.461
28.197418,-140,2197,62,110,207,-416,9598.089,8239.898,-8339.009,6235.151
28.217407,-118,2399,73,27,222,-479,9610.200,8305.324,-8282.010,6205.592
28.237426,-137,2487,62,-11,219,-500,9622.647,8368.308,-8226.553,6175.382,417,-32,77
28.257415,-150,2427,-13,7,196,-483,9641.612,8421.991,-8169.767,6148.148,417,-32,77,33917
28.277404,-181,2674,-101,79,148,-469,9676.698,8461.064,-8103.830,6126.603
28.297424,-210,2570,-32,240,82,-479,9735.881,8480.839,-8021.295,6114.101
28.317413,-178,2239,-71,425,6,-492,9808.231,8485.000,-7932.828,6108.114
28.337432,-155,2144,-51,487,-47,-451,9880.467,8478.018,-7852.941,6104.614,394,-36,73
28.357421,-173,2058,0,458,-93,-372,9942.504,8464.510,-7793.222,6099.164
28.377410,-114,1910,16,332,-131,-270,9983.811,8451.607,-7764.930,6085.651
28.397399,-82,1721,11,114,-150,-158,10000.405,8441.488,-7772.503,6062.738
28.417419,-70,1714,10,-107,-173,-41,9996.252,8430.529,-7812.438,6033.438
28.437408,-74,1777,13,-266,-204,80,9979.259,8413.109,-7875.432,6003.914,377,-17,61
28.457458,-36,1874,4,-340,-236,183,9956.893,8386.589,-7951.661,5977.618
28.477386,-1,1924,30,-349,-273,258,9935.244,8348.167,-8033.972,5957.327
28.497406,24,1954,67,-308,-315,328,9915.089,8296.011,-8120.199,5946.847
28.517395,27,2204,166,-260,-342,415,9893.730,8232.751,-8210.635,5946.161
28.537384,7,2243,170,-242,-352,485,9867.250,8167.788,-8306.329,5946.842,371,-23,67
28.557403,23,2244,156,-287,-343,495,9834.279,8110.812,-8403.562,5942.832
28.577392,7,2289,155,-332,-301,460,9800.528,8063.083,-8491.140,5939.050
28.597381,19,2159,168,-287,-239,402,9768.937,8024.193,-8562.207,5941.736
28.617401,31,1927,149,-226,-149,350,9735.842,7997.651,-8617.373,5952.081
28.637390,-2,2024,129,-186,-46,301,9704.660,7982.658,-8654.288,5969.545,381,-28,69
28.657409,-32,1894,132,-100,41,223,9683.180,7980.072,-8665.384,5991.746
28.677398,-64,1972,71,0,128,95,9668.758,7995.971,-8651.599,6013.719
28.697387,-57,2035,69,51,224,-51,9662.939,8029.071,-8612.666,6034.818
28.717407,-49,1961,83,134,297,-193,9665.338,8075.265,-8552.960,6054.225
28.737396,-98,2098,62,176,353,-302,9671.280,8134.513,-8480.404,6067.473,392,-28,85
28.757415,-87,2166,100,170,384,-401,9681.212,8203.437,-8399.681,6071.124,392,-28,85,33955
28.777404,-78,2236,43,163,386,-490,9695.964,8275.533,-8314.758,6066.634
28.797393,-63,2163,54,167,357,-533,9715.878,8343.500,-8231.109,6055.741
28.817382,-23,2078,67,163,291,-534,9738.554,8400.415,-8158.005,6039.535
28.837402,-22,2173,62,134,196,-473,9762.038,8439.513,-8104.078,6019.683,396,-36,87
28.857391,4,2206,53,100,73,-364,9786.108,8454.223,-8074.079,6000.240
28.877380,-7,2235,107,68,-65,-209,9807.453,8442.455,-8072.583,5983.950
28.897369,33,2094,77,21,-195,-27,9819.711,8405.745,-8104.656,5972.160
28.917389,57,2146,36,-64,-302,190,9820.843,8344.908,-8168.129,5969.141
28.937378,55,2217,91,-111,-387,395,9816.162,8260.859,-8253.156,5976.789,385,-19,69
28.957367,103,1856,102,-103,-456,557,9806.943,8159.700,-8351.563,5994.161
28.977386,86,1794,9,-107,-487,672,9792.653,8048.245,-8457.336,6019.850
28.997375,73,1865,22,-81,-488,748,9783.760,7929.025,-8553.728,6056.217
29.017364,72,1894,-6,46,-471,735,9785.273,7810.035,-8628.934,6101.532
29.037384,91,2042,-5,162,-409,669,9791.662,7703.248,-8683.234,6149.812,371,-28,72
29.057373,42,2239,33,197,-318,561,9797.248,7620.491,-8719.820,6192.109
29.077362,45,2222,-3,167,-204,403,9799.034,7571.232,-8738.921,6222.706
29.116149,23,2143,-13,102,-69,212,9798.021,7558.699,-8737.635,6241.314
29.117431,43,2301,-41,66,68,11,9797.989,7576.803,-8714.491,6251.764,400,-35,81
29.137390,88,2281,-33,73,187,-153,9798.771,7614.334,-8672.641,6263.124
29.157379,98,2173,-7,99,288,-228,9795.628,7661.371,-8623.271,6278.828
29.177368,129,2061,-16,95,343,-231,9789.100,7710.075,-8573.632,6297.342
29.197387,127,2067,-10,91,346,-219,9783.251,7755.066,-8527.103,6314.341
29.217376,140,1996,58,88,308,-207,9778.975,7793.527,-8486.751,6327.960
29.237365,145,1981,69,66,251,-176,9772.544,7825.522,-8460.287,6333.843,416,-30,74
29.257385,154,2061,23,-15,171,-137,9762.184,7851.051,-8452.182,6329.045,416,-30,74,33914
29.277374,143,2022,-32,-99,81,-101,9752.828,7867.631,-8458.933,6313.844
29.297363,120,2121,-75,-136,-14,-74,9751.604,7870.809,-8471.093,6295.443
29.317352,108,2157,-41,-75,-101,-46,9762.159,7855.825,-8482.573,6282.328
29.337371,103,2148,38,14,-168,11,9777.358,7827.981,-8497.446,6273.342,404,-33,67
29.357360,79,2215,22,23,-212,51,9787.944,7799.035,-8522.353,6259.084
29.377349,38,2506,118,-66,-232,66,9790.041,7775.385,-8558.799,6235.453
29.397369,35,2282,251,-177,-241,59,9775.995,7765.115,-8612.367,6196.408
29.417389,63,2139,169,-394,-223,50,9736.161,7775.625,-8688.043,6140.046
29.437347,72,1832,232,-621,-175,50,9683.791,7795.585,-8770.682,6079.770,409,-33,69
29.457367,110,1410,127,-636,-143,53,9636.545,7813.630,-8842.249,6027.789
29.477356,71,1372,53,-497,-111,44,9611.090,7820.405,-8883.789,5998.494
29.497345,71,1598,53,-187,-77,19,9619.447,7811.995,-8883.496,5996.490
29.517364,22,1641,69,164,-43,-32,9653.032,7796.415,-8847.365,6016.182
29.537353,9,1915,2,378,15,-94,9697.515,7785.424,-8788.898,6044.508,401,-29,87
29.557373,-54,2384,79,458,73,-166,9745.572,7784.323,-8718.056,6071.166
29.577362,-84,2483,119,451,112,-247,9784.729,7800.831,-8647.164,6088.357
29.597351,-69,2401,36,311,181,-304,9801.326,7843.570,-8587.301,6091.479
29.617370,-100,2539,22,100,266,-350,9803.901,7904.979,-8534.201,6082.571
29.637359,-115,2276,49,7,297,-400,9801.860,7974.291,-8484.182,6065.336,420,-43,84
29.657348,-136,2100,62,-56,298,-426,9795.977,8049.222,-8438.384,6039.699
29.677368,-145,1726,89,-101,287,-451,9793.353,8124.502,-8392.512,6006.985
29.697357,-156,1575,-14,-97,250,-482,9798.557,8195.165,-8343.115,5971.215
29.717346,-156,1688,-27,-34,208,-496,9819.668,8251.604,-8283.026,5942.395
29.737365,-190,1954,-10,132,150,-482,9859.841,8287.433,-8210.102,5927.195,402,-33,92
29.757354,-206,2259,-29,307,92,-445,9909.385,8304.724,-8134.590,5924.484,402,-33,92,33917
29.777343,-197,2584,-20,379,50,-357,9957.725,8305.110,-8068.215,5933.650
29.797332,-203,2934,-20,390,6,-233,9999.618,8289.688,-8018.873,5951.622
29.817352,-184,2727,17,353,-39,-97,10027.519,8264.764,-7994.186,5972.516
29.837341,-180,2405,45,223,-68,37,10035.602,8238.268,-7998.545,5989.686,385,-23,79
29.857330,-136,2080,65,50,-82,146,10026.247,8212.127,-8028.087,6001.716
29.877349,-60,1832,81,-90,-101,229,10000.486,8186.242,-8080.847,6009.249
29.897338,-15,1702,138,-228,-111,324,9959.486,8158.247,-8155.825,6014.116
29.917327,76,1536,146,-348,-138,413,9906.221,8125.901,-8251.840,6014.906
29.937347,126,1465,113,-445,-178,497,9843.943,8085.225,-8365.113,6015.500,375,-22,68
29.957336,184,1777,88,-493,-218,589,9780.903,8029.593,-8485.770,6023.845
29.977325,263,1812,137,-418,-265,673,9730.382,7952.119,-8599.811,6046.663
29.997345,325,1677,97,-245,-314,730,9693.990,7855.869,-8702.368,6084.086
30.017334,327,2009,38,-94,-341,766,9671.023,7744.506,-8790.979,6135.802
30.037353,289,2215,-1,74,-350,780,9665.944,7623.715,-8859.208,6196.640,379,-22,75
30.057342,262,2295,-19,232,-354,720,9675.988,7506.050,-8905.268,6258.282
30.077331,229,2273,2,317,-320,601,9694.899,7404.105,-8932.106,6311.977
30.097351,198,2213,4,325,-264,445,9714.109,7329.505,-8946.947,6348.386
30.117340,182,2392,22,226,-192,262,9726.950,7289.460,-8954.494,6364.172
30.137329,154,2338,70,96,-104,86,9729.830,7284.850,-8957.714,6360.515,413,-43,84
30.157348,148,2208,98,-60,-4,-70,9717.668,7314.105,-8961.285,6340.474
30.177337,142,2295,62,-221,96,-180,9693.459,7369.768,-8962.954,6310.647
30.197326,138,2357,79,-296,180,-267,9669.918,7438.327,-8952.886,6280.545
30.217346,128,2186,94,-241,239,-331,9653.264,7509.957,-8927.905,6256.435
30.237335,78,2061,122,-149,278,-364,9647.784,7580.364,-8886.232,6239.283,436,-48,91
30.257324,40,1850,133,-27,288,-416,9657.680,7648.850,-8828.535,6222.275,436,-48,91,33923
30.277343,-11,1932,110,66,268,-485,9680.877,7715.612,-8758.956,6202.101
30.297363,-42,2098,91,139,238,-545,9715.985,7778.065,-8681.700,6177.771
30.317321,-45,2018,111,187,192,-584,9755.489,7836.826,-8605.150,6148.285
30.337402,-38,2156,32,161,152,-580,9791.782,7890.028,-8537.513,6116.760,416,-45,85
30.357330,-35,2021,53,139,115,-518,9826.039,7929.048,-8479.805,6091.591
30.377319,12,1880,28,152,69,-404,9854.600,7950.037,-8436.285,6078.510
30.397338,60,1818,56,157,31,-245,9877.005,7950.387,-8409.051,6079.425
30.417327,68,1656,125,171,-23,-79,9893.421,7930.787,-8399.781,6091.136
30.437316,61,1797,119,138,-81,72,9898.069,7900.536,-8413.341,6104.169,395,-35,90
30.457336,61,1905,196,28,-125,178,9891.013,7868.052,-8448.479,6109.029
30.477325,48,1944,265,-110,-172,216,9870.917,7841.612,-8503.107,6099.730
30.497314,58,2087,201,-271,-189,222,9837.344,7823.749,-8573.825,6077.874
30.517334,37,2205,168,-398,-186,225,9799.222,7810.427,-8647.383,6052.327
30.537323,86,2261,92,-393,-168,205,9768.443,7798.003,-8706.696,6033.038,400,-42,72
30.557312,88,2424,21,-262,-126,161,9755.609,7780.774,-8737.087,6032.112
30.577331,109,2482,-9,-7,-72,125,9765.901,7751.678,-8732.692,6059.222
30.597320,115,2574,17,284,-14,130,9791.542,7712.755,-8701.398,6112.300
30.617309,91,2290,19,467,48,141,9821.173,7673.735,-8656.707,6176.989
30.637329,81,1812,-42,507,95,124,9849.019,7642.548,-8607.320,6240.013,413,-41,82
30.657318,67,1850,-101,480,124,78,9878.064,7620.373,-8553.326,6295.221
30.677337,54,1938,-94,469,132,3,9912.148,7604.695,-8493.421,6341.543
30.697326,91,2076,-67,453,123,-67,9942.727,7596.080,-8436.926,6379.297
30.717315,117,1953,-97,370,128,-80,9962.434,7594.090,-8392.527,6409.418
30.737304,127,1783,-45,251,128,-63,9969.352,7598.145,-8363.613,6431.611,408,-41,89
30.757324,140,2125,-109,121,124,-40,9966.966,7607.927,-8347.488,6444.680,408,-41,89,33906
30.777343,111,2071,31,36,108,-46,9960.919,7622.508,-8339.460,6447.194
30.797302,82,2280,39,-59,82,-75,9945.419,7649.367,-8345.423,6431.576
30.817321,10,2398,78,-230,70,-129,9921.779,7694.010,-8363.122,6391.723
30.837310,-8,2351,71,-388,55,-231,9894.135,7757.173,-8385.957,6327.995,418,-30,67
30.857299,-1,2101,32,-508,54,-341,9866.495,7831.675,-8407.066,6250.904
30.877319,22,2036,-45,-518,57,-408,9849.015,7903.770,-8416.141,6175.056
30.897308,6,1829,-107,-382,50,-432,9852.529,7957.881,-8401.707,6119.357
30.917297,-4,1919,-74,-103,35,-398,9878.975,7983.580,-8363.657,6095.323
30.937316,-55,2045,17,187,20,-297,9917.770,7985.170,-8313.660,6098.638,404,-33,69
30.957306,-63,1895,83,329,9,-201,9952.493,7980.420,-8269.472,6108.358
30.977295,-66,1848,15,253,11,-153,9973.639,7982.071,-8240.474,6110.898
30.997314,-77,1968,-6,125,16,-129,9986.044,7985.545,-8222.232,6110.673
31.017334,-93,1950,-32,82,15,-87,9992.582,7987.310,-8209.513,6114.779
